sample,time_s,sensor,accel_x_mps2,accel_y_mps2,accel_z_mps2,gyro_x_radps,gyro_y_radps,gyro_z_radps,quat_i,quat_j,quat_k,quat_real,roll_deg,pitch_deg,yaw_deg
0,0.040058041999145644,bno085,0.16015625,-0.37109375,9.83203125,-0.00390625,0.0,0.0,-0.01458740234375,-0.01104736328125,0.22198486328125,0.974853515625,-2.7262715379765138e-05,3.599883412023627e-05,1.7915455061651401e-06
1,0.0800556210015202,bno085,0.16015625,-0.37109375,9.83203125,0.01171875,0.04296875,0.001953125,-0.0164794921875,-0.01214599609375,0.24920654296875,0.96826171875,-0.21956144211116818,-0.12247947298074313,3.2125141822705285
2,0.12005353399945307,bno085,0.16015625,-0.33203125,9.87109375,0.052734375,0.0234375,0.0,-0.0164794921875,-0.01214599609375,0.24920654296875,0.96826171875,-0.21956144211116818,-0.12247947298074313,3.2125141822705285
3,0.1600541500010877,bno085,0.12109375,-0.33203125,9.83203125,0.046875,-0.0234375,0.0,-0.01605224609375,-0.0113525390625,0.250244140625,0.968017578125,-0.14871750355748162,-0.048568949581949364,3.335637302395591
4,0.20005554399904213,bno085,0.16015625,-0.75390625,9.87109375,0.046875,-0.0234375,0.0,-0.01605224609375,-0.01153564453125,0.25152587890625,0.9676513671875,-0.15304131268466672,-0.0712107847185926,3.4863295867906743
5,0.24005415999999968,bno085,0.12109375,0.47265625,9.8671875,0.05859375,-0.06640625,0.556640625,-0.01629638671875,-0.01226806640625,0.2633056640625,0.9644775390625,-0.19433247711679671,-0.16695144641945162,4.88211368412447
6,0.28005427600146504,bno085,0.234375,-0.1796875,9.87109375,-0.02734375,0.044921875,0.001953125,-0.01788330078125,-0.01220703125,0.26568603515625,0.96380615234375,-0.36652034321866916,-0.11634568832757201,5.168060746654761
7,0.32005476300037117,bno085,0.12109375,-0.44921875,9.828125,-0.029296875,0.00390625,0.0390625,-0.01788330078125,-0.01220703125,0.26568603515625,0.96380615234375,-0.36652034321866916,-0.11634568832757201,5.168060746654761
8,0.36005508300149813,bno085,0.16015625,-0.37109375,9.87109375,-0.017578125,0.013671875,0.052734375,-0.017333984375,-0.01171875,0.26251220703125,0.9647216796875,-0.2930191018743136,-0.07363327545114946,4.791332639033965
9,0.40005436499995994,bno085,0.12109375,-0.640625,9.828125,0.001953125,0.029296875,0.083984375,-0.016845703125,-0.011474609375,0.2598876953125,0.96539306640625,-0.23337657014507843,-0.05648102573637437,4.477929897466385
10,0.4400540930000716,bno085,0.16015625,-0.41015625,9.83203125,0.001953125,0.029296875,0.083984375,-0.016357421875,-0.01141357421875,0.26129150390625,0.96502685546875,-0.17659301247088507,-0.06688059354240368,4.643853136797392
11,0.4800540420001198,bno085,0.3125,0.5859375,9.87109375,-0.005859375,0.01953125,-0.048828125,-0.0162353515625,-0.01129150390625,0.26190185546875,0.96490478515625,-0.1590640422607725,-0.05826009685156235,4.717273202255508
12,0.5200538249991951,bno085,0.04296875,-0.83203125,9.94140625,-0.0078125,-0.0078125,0.009765625,-0.0130615234375,-0.01116943359375,0.26019287109375,0.96539306640625,0.19464023907270145,-0.1360619743753905,4.508441323914887
13,0.5600539600018237,bno085,-0.109375,-0.140625,9.9765625,0.126953125,0.23046875,0.048828125,-0.0130615234375,-0.01116943359375,0.26019287109375,0.96539306640625,0.19464023907270145,-0.1360619743753905,4.508441323914887
14,0.6000541130015336,bno085,0.04296875,-0.296875,9.9375,0.083984375,0.216796875,-0.12890625,-0.00885009765625,-0.00653076171875,0.2623291015625,0.96490478515625,0.8010949826676272,0.2455002744210645,4.76418132220743
15,0.6400542480005242,bno085,-0.109375,-0.37109375,9.83203125,0.083984375,0.216796875,-0.12890625,-0.00921630859375,-0.00030517578125,0.26019287109375,0.96551513671875,0.9442819395382009,0.9511696624613254,4.527678887505586
16,0.6800591419996636,bno085,0.234375,-0.1796875,9.79296875,-0.037109375,0.14453125,-0.025390625,-0.01153564453125,0.00274658203125,0.25726318359375,0.96624755859375,0.7725475059997584,1.366199367408603,4.189810355306809
17,0.7200543690014456,bno085,-0.1875,0.0859375,10.2109375,-0.322265625,0.1015625,-0.01171875,-0.01727294921875,0.00201416015625,0.2586669921875,0.9658203125,0.11871378034006351,1.4512186965210199,4.35751467921496
18,0.7600537260004785,bno085,-0.4921875,-0.90625,10.67578125,-0.294921875,-0.19921875,0.265625,-0.01727294921875,0.00201416015625,0.2586669921875,0.9658203125,0.11871378034006351,1.4512186965210199,4.35751467921496
19,0.8000541939982213,bno085,-0.1484375,-0.44921875,10.55859375,0.005859375,-0.419921875,-0.609375,-0.02581787109375,-0.00323486328125,0.262451171875,0.964599609375,-0.9758945559685975,1.119676247384694,4.8024697763044975
20,0.8400560320005752,bno085,0.3125,-0.06640625,9.75,0.005859375,-0.419921875,-0.609375,-0.03204345703125,-0.00921630859375,0.2554931640625,0.96624755859375,-1.8543868210494694,0.6464640464290258,3.980114296776679
21,0.8800552600005176,bno085,0.234375,-0.75390625,10.3203125,0.2890625,-0.251953125,-0.138671875,-0.01971435546875,-0.01458740234375,0.25042724609375,0.96783447265625,-0.6478033830696472,-0.3027017078488426,3.3604510257964777
22,0.9200540429992543,bno085,0.6953125,-0.48828125,11.015625,-0.29296875,-0.22265625,-0.01171875,-0.01983642578125,-0.0225830078125,0.25091552734375,0.967529296875,-0.8913183540203616,-1.1867908781360441,3.41617078150701
23,0.9600543250016926,bno085,0.7734375,-0.21875,10.6328125,-0.08203125,-0.29296875,-0.091796875,-0.01983642578125,-0.0225830078125,0.25091552734375,0.967529296875,-0.8913183540203616,-1.1867908781360441,3.41617078150701
24,1.0000542939997104,bno085,0.80859375,-0.71484375,10.67578125,0.25,-0.517578125,-0.1640625,-0.0201416015625,-0.0306396484375,0.25042724609375,0.96746826171875,-1.1568613928630402,-2.0716790094380158,3.364216639848566
25,1.0400538360008795,bno085,1.15625,-0.140625,10.78125,0.25,-0.517578125,-0.1640625,-0.01409912109375,-0.04156494140625,0.24945068359375,0.9674072265625,-0.79773287930566,-3.456593592432653,3.234049211653963
26,1.0800572480002302,bno085,0.80859375,-0.87109375,10.40234375,0.443359375,-0.4140625,-0.173828125,-0.00506591796875,-0.0509033203125,0.2484130859375,0.96728515625,-0.05677570794096031,-4.749836658980518,3.0719060660651594
27,1.1200547900007223,bno085,0.84765625,-0.79296875,10.25390625,-0.26171875,-0.0234375,-0.08984375,-0.00323486328125,-0.0565185546875,0.24334716796875,0.96826171875,0.011013678339316494,-5.415897860816086,2.466168798959209
28,1.1600544989996706,bno085,0.80859375,-0.37109375,9.51953125,-0.345703125,0.208984375,0.0390625,-0.00323486328125,-0.0565185546875,0.24334716796875,0.96826171875,0.011013678339316494,-5.415897860816086,2.466168798959209
29,1.2000546339986613,bno085,0.734375,-0.71484375,9.51953125,0.126953125,0.009765625,0.01171875,-0.0364990234375,-0.045654296875,0.2305908203125,0.9713134765625,-3.3575767453187106,-3.2969386257252915,1.1210341504972285
30,1.2400546019998728,bno085,0.6171875,-0.984375,9.83203125,0.126953125,0.009765625,0.01171875,-0.0379638671875,-0.04376220703125,0.228271484375,0.97186279296875,-3.4650959429889143,-3.0505493678061644,0.8469354074719352
31,1.2800544769997941,bno085,0.58203125,-0.79296875,9.671875,0.595703125,-0.0390625,-0.134765625,-0.03173828125,-0.04107666015625,0.2261962890625,0.97271728515625,-2.693827624917317,-2.9161438728230116,0.5673616633848614
32,1.3200542049999058,bno085,0.65625,-0.296875,9.5546875,-0.115234375,0.162109375,-0.21484375,-0.03240966796875,-0.03814697265625,0.221435546875,0.973876953125,-2.683640020292919,-2.5751919856218315,0.0016392502169834155
33,1.3600554500008002,bno085,0.734375,-0.10546875,8.71484375,-0.47265625,0.4765625,-0.20703125,-0.03240966796875,-0.03814697265625,0.221435546875,0.973876953125,-2.683640020292919,-2.5751919856218315,0.0016392502169834155
34,1.4000554929989448,bno085,0.50390625,-0.296875,9.59375,-0.2109375,-0.001953125,-0.04296875,-0.0408935546875,-0.031005859375,0.21563720703125,0.97509765625,-3.4457454208330667,-1.5703206580210063,-0.6685967464867091
35,1.4400564419993316,bno085,0.46484375,-0.21875,9.4453125,-0.2109375,-0.001953125,-0.04296875,-0.04718017578125,-0.0277099609375,0.21380615234375,0.975341796875,-4.067641092843463,-1.0498659020782781,-0.8748526092584625
36,1.4800555770016217,bno085,0.6171875,-0.06640625,8.87109375,0.0546875,-0.01171875,-0.09375,-0.04949951171875,-0.02667236328125,0.2115478515625,0.97576904296875,-4.302097918540514,-0.8823438542039853,-1.1367422521354495
37,1.5200557489988569,bno085,0.50390625,-0.37109375,9.02734375,-0.138671875,0.02734375,-0.01953125,-0.052734375,-0.02667236328125,0.2108154296875,0.9757080078125,-4.664689839964637,-0.805484201015821,-1.2158221939407539
38,1.5600561799983552,bno085,0.58203125,-0.41015625,8.83203125,-0.150390625,-0.001953125,0.013671875,-0.052734375,-0.02667236328125,0.2108154296875,0.9757080078125,-4.664689839964637,-0.805484201015821,-1.2158221939407539
39,1.6000553140002012,bno085,0.54296875,-0.71484375,9.13671875,0.08203125,-0.0703125,0.0390625,-0.05645751953125,-0.02783203125,0.2113037109375,0.97540283203125,-5.110839898556181,-0.8434692024079903,-1.144096069287333
40,1.6400541160001012,bno085,0.50390625,-0.87109375,9.515625,0.08203125,-0.0703125,0.0390625,-0.05535888671875,-0.02838134765625,0.212158203125,0.9752197265625,-5.000804364843329,-0.9288130476778037,-1.0453430298872566
41,1.6800545279984362,bno085,0.54296875,-0.90625,9.75,0.080078125,-0.005859375,0.009765625,-0.05426025390625,-0.0279541015625,0.212646484375,0.9752197265625,-4.867281750392271,-0.9064800483109402,-0.9918730459066284
42,1.7200552920003247,bno085,0.46484375,-0.83203125,10.25390625,0.05078125,0.064453125,-0.013671875,-0.0526123046875,-0.02642822265625,0.21234130859375,0.97540283203125,-4.644919576998025,-0.776861382618791,-1.037886742444583
43,1.76005555699885,bno085,0.46484375,-0.6796875,10.01953125,0.302734375,0.0,-0.142578125,-0.0526123046875,-0.02642822265625,0.21234130859375,0.97540283203125,-4.644919576998025,-0.776861382618791,-1.037886742444583
44,1.800054524999723,bno085,0.3125,-0.79296875,9.98046875,-0.009765625,0.103515625,-0.09375,-0.0457763671875,-0.02508544921875,0.2100830078125,0.976318359375,-3.8460549443952448,-0.7982102720333081,-1.3222752507079645
45,1.8400555299995176,bno085,0.38671875,-0.5625,9.8984375,-0.009765625,0.103515625,-0.09375,-0.04498291015625,-0.0233154296875,0.2081298828125,0.976806640625,-3.714701752307574,-0.6227221833528955,-1.5581221332231605
46,1.8800579050002852,bno085,0.3125,-0.6796875,9.9765625,-0.044921875,0.076171875,-0.021484375,-0.0462646484375,-0.02093505859375,0.20709228515625,0.97698974609375,-3.8018836079280836,-0.3272645520877311,-1.6839992364577732
47,1.9200707439995313,bno085,0.3125,-0.6015625,9.37109375,-0.087890625,0.060546875,-0.01953125,-0.047607421875,-0.01953125,0.20611572265625,0.9771728515625,-3.919921727675504,-0.140040779302737,-1.7993394688259712
48,1.9600557119993027,bno085,0.3125,-0.6015625,9.63671875,0.14453125,0.115234375,-0.076171875,-0.047607421875,-0.01953125,0.20611572265625,0.9771728515625,-3.919921727675504,-0.140040779302737,-1.7993394688259712
49,2.000063791001594,bno085,0.12109375,-0.6796875,9.828125,0.46875,0.193359375,-0.3515625,-0.04644775390625,-0.010986328125,0.093505859375,0.99444580078125,-3.793994350255315,0.5707976942506295,-14.879339296665549
50,2.040055740999378,bno085,0.234375,-0.296875,9.63671875,0.46875,0.193359375,-0.3515625,-0.03887939453125,-0.00787353515625,0.08837890625,0.99530029296875,-2.9077802597862172,0.8379416643820875,-15.481738665912978
51,2.0800558750015625,bno085,0.1953125,-0.44921875,10.05859375,-0.146484375,0.142578125,-0.095703125,-0.0411376953125,-0.00640869140625,0.086181640625,0.99542236328125,-3.156155867055537,1.0246223007430093,-15.735086978412244
52,2.120055677001801,bno085,0.3125,-0.296875,10.70703125,-0.0390625,-0.080078125,-0.07421875,-0.04144287109375,-0.00799560546875,0.08416748046875,0.99554443359375,-3.211031488310277,0.8432714003754195,-15.964114682455591
53,2.160055904001638,bno085,0.50390625,-0.37109375,10.7421875,-0.03515625,-0.1015625,-0.13671875,-0.04144287109375,-0.00799560546875,0.08416748046875,0.99554443359375,-3.211031488310277,0.8432714003754195,-15.964114682455591
54,2.2000556679995498,bno085,0.65625,-0.5625,10.90234375,0.03125,-0.115234375,-0.095703125,-0.04144287109375,-0.010498046875,0.08050537109375,0.995849609375,-3.242380367668185,0.5514873800296679,-16.38051130335168
55,2.2400558959998307,bno085,0.58203125,-0.41015625,11.203125,0.03125,-0.115234375,-0.095703125,-0.03985595703125,-0.013916015625,0.07867431640625,0.99603271484375,-3.095529812005478,0.1436411679447649,-16.586818995576174
56,2.280055048999202,bno085,0.1953125,-0.90625,9.9765625,-0.39453125,0.05078125,0.07421875,-0.04656982421875,-0.01531982421875,0.07916259765625,0.99566650390625,-3.875121990840616,0.04521509610710763,-16.517657520504688
57,2.3200550170004135,bno085,0.1953125,-1.1015625,9.94140625,-0.32421875,0.0703125,-0.037109375,-0.05609130859375,-0.0140380859375,0.0777587890625,0.99530029296875,-4.954652410640377,0.27371982614485674,-16.669071562968323
58,2.3600548739996157,bno085,0.3515625,-0.75390625,9.671875,-0.19140625,-0.001953125,0.013671875,-0.05609130859375,-0.0140380859375,0.0777587890625,0.99530029296875,-4.954652410640377,0.27371982614485674,-16.669071562968323
59,2.4000551200006157,bno085,0.46484375,-0.83203125,9.79296875,-0.28125,0.123046875,0.033203125,-0.0621337890625,-0.01397705078125,0.07769775390625,0.99493408203125,-5.645553551718923,0.3346926528515014,-16.668512038218154
60,2.4400547910008754,bno085,0.50390625,-0.79296875,9.87109375,-0.28125,0.123046875,0.033203125,-0.06866455078125,-0.0126953125,0.07861328125,0.99444580078125,-6.379856678257056,0.5440382603813088,-16.56160877363101
61,2.4800551849984913,bno085,0.3125,-0.9453125,9.79296875,-0.232421875,0.16015625,0.080078125,-0.0723876953125,-0.00982666015625,0.079833984375,0.994140625,-6.777653166994639,0.9115371332665677,-16.432588976091928
62,2.52005580200057,bno085,0.1953125,-1.0625,9.87109375,-0.09765625,0.03515625,0.021484375,-0.07525634765625,-0.00860595703125,0.08013916015625,0.993896484375,-7.09414475762779,1.0789504039480582,-16.402546518099456
63,2.560054992001824,bno085,0.08203125,-1.13671875,9.5546875,-0.095703125,0.095703125,-0.02734375,-0.07525634765625,-0.00860595703125,0.08013916015625,0.993896484375,-7.09414475762779,1.0789504039480582,-16.402546518099456
64,2.600056053001026,bno085,0.08203125,-1.21484375,9.5546875,-0.025390625,0.021484375,-0.046875,-0.0791015625,-0.00634765625,0.07965087890625,0.99365234375,-7.515348652271968,1.3692027955683002,-16.470149373494905
65,2.6400551129991072,bno085,0.1953125,-1.21484375,9.171875,-0.025390625,0.021484375,-0.046875,-0.07794189453125,-0.001708984375,0.0252685546875,0.99664306640625,-7.513945942374245,1.5655102276785466,-22.732827856295824
66,2.680055895998521,bno085,0.08203125,-1.29296875,9.4453125,-0.375,0.0703125,-0.0078125,-0.083740234375,-0.0008544921875,0.019775390625,0.99627685546875,-8.19541621420281,1.6429553348272472,-23.367250014126707
67,2.7200555310009804,bno085,0.04296875,-1.29296875,9.8984375,-0.044921875,-0.046875,-0.03515625,-0.086181640625,-0.00152587890625,0.01910400390625,0.99609375,-8.479752575094547,1.5669927065525255,-23.439406682384455
68,2.7600555360004364,bno085,0.04296875,-1.29296875,9.94140625,-0.123046875,-0.005859375,-0.01953125,-0.086181640625,-0.00152587890625,0.01910400390625,0.99609375,-8.479752575094547,1.5669927065525255,-23.439406682384455
69,2.8000547449992155,bno085,0.12109375,-1.21484375,9.83203125,0.087890625,0.00390625,-0.015625,-0.08856201171875,-0.00177001953125,0.0185546875,0.99591064453125,-8.755861214762989,1.5402879257136552,-23.500343800926203
70,2.8400548239987984,bno085,0.3125,-1.328125,9.3671875,0.087890625,0.00390625,-0.015625,-0.08648681640625,-0.00225830078125,0.0181884765625,0.99609375,-8.519203975793094,1.4774035216683998,-23.538930111407634
71,2.8800557920003484,bno085,0.38671875,-1.21484375,9.37109375,0.1015625,-0.046875,-0.060546875,-0.0830078125,-0.00390625,0.01727294921875,0.99639892578125,-8.124966560189947,1.2754516830187863,-23.63309756089368
72,2.920054964000883,bno085,0.3125,-1.3671875,9.17578125,-0.060546875,-0.01953125,-0.03515625,-0.0845947265625,-0.00433349609375,0.01654052734375,0.99627685546875,-8.310260060537315,1.224721775782675,-23.71342677289876
73,2.9600561350016505,bno085,0.3125,-1.29296875,9.25390625,-0.10546875,0.00390625,-0.02734375,-0.0845947265625,-0.00433349609375,0.01654052734375,0.99627685546875,-8.310260060537315,1.224721775782675,-23.71342677289876
74,3.0000547890012967,bno085,0.12109375,-1.21484375,9.48828125,-0.115234375,-0.01171875,-0.001953125,-0.0869140625,-0.0047607421875,0.0159912109375,0.99609375,-8.57932398679099,1.1763941842006178,-23.772302046317083
75,3.040055442001176,bno085,0.12109375,-1.21484375,9.21484375,-0.115234375,-0.01171875,-0.001953125,-0.088623046875,-0.005615234375,0.01593017578125,0.99591064453125,-8.777237832013501,1.0814582675844184,-23.772289104879693
76,3.08005635399968,bno085,0.12109375,-1.40625,9.59375,-0.16015625,-0.03515625,0.021484375,-0.0921630859375,-0.006591796875,0.01605224609375,0.99560546875,-9.186115439587343,0.9773818349451693,-23.74881631736556
77,3.120055858998967,bno085,0.234375,-1.484375,9.5546875,-0.1953125,-0.06640625,-0.021484375,-0.0965576171875,-0.00823974609375,0.015625,0.99517822265625,-9.695736997128,0.7938547494758332,-23.781215936883076
78,3.160056827000517,bno085,0.16015625,-1.4453125,9.71484375,-0.0625,-0.017578125,0.02734375,-0.0965576171875,-0.00823974609375,0.015625,0.99517822265625,-9.695736997128,0.7938547494758332,-23.781215936883076
79,3.2000555359991267,bno085,0.08203125,-1.63671875,9.94140625,0.0546875,-0.037109375,-0.015625,-0.09912109375,-0.00848388671875,0.01617431640625,0.99493408203125,-9.99019139517228,0.7754335580448212,-23.714210782249495
80,3.2400548010009516,bno085,-0.03125,-1.63671875,10.0546875,0.0546875,-0.037109375,-0.015625,-0.09893798828125,-0.009033203125,0.01617431640625,0.99493408203125,-9.969974075151747,0.7123300430787841,-23.70966980989701
81,3.280054990998906,bno085,0.04296875,-1.67578125,9.8671875,0.033203125,0.06640625,-0.029296875,-0.0977783203125,-0.00799560546875,0.0152587890625,0.99505615234375,-9.836576949469144,0.8209503992574408,-23.82416350039835
82,3.320056143998954,bno085,0.12109375,-1.75,9.9375,-0.083984375,0.09765625,-0.0546875,-0.09857177734375,-0.006103515625,0.01385498046875,0.9949951171875,-9.92817932204681,1.0266345973775675,-24.000187474348586
83,3.3600552969983255,bno085,0.234375,-1.484375,9.8984375,0.03125,0.07421875,-0.068359375,-0.09857177734375,-0.006103515625,0.01385498046875,0.9949951171875,-9.92817932204681,1.0266345973775675,-24.000187474348586
84,3.4000551540011656,bno085,0.46484375,-1.3671875,9.484375,0.029296875,0.111328125,-0.021484375,-0.09765625,-0.004638671875,0.01202392578125,0.9951171875,-9.825643104534992,1.1770884207697385,-24.22239143837383
85,3.4400543449992256,bno085,0.46484375,-1.484375,9.67578125,0.029296875,0.111328125,-0.021484375,-0.09613037109375,-0.00225830078125,0.010986328125,0.99530029296875,-9.650351507798065,1.4383872908381112,-24.36133593908644
86,3.4800544979989354,bno085,0.42578125,-1.40625,9.8984375,0.099609375,0.048828125,-0.001953125,-0.09405517578125,-0.00103759765625,0.01068115234375,0.9954833984375,-9.410935733419436,1.5728173802849408,-24.406408713898866
87,3.5200545949992375,bno085,0.12109375,-1.55859375,10.4375,-0.017578125,0.1015625,0.01953125,-0.093994140625,0.00103759765625,0.0111083984375,0.9954833984375,-9.40040686448025,1.8133635094923488,-24.374180482579817
88,3.5600553779986512,bno085,-0.0703125,-1.7890625,10.59765625,-0.078125,0.08984375,0.013671875,-0.093994140625,0.00103759765625,0.0111083984375,0.9954833984375,-9.40040686448025,1.8133635094923488,-24.374180482579817
89,3.600055031998636,bno085,-0.1484375,-1.7890625,10.6328125,-0.111328125,0.0234375,-0.037109375,-0.0948486328125,0.0028076171875,0.01165771484375,0.99542236328125,-9.495372197997686,2.021210112640399,-24.325835522060387
90,3.6400553509993188,bno085,-0.1484375,-1.7109375,10.36328125,-0.111328125,0.0234375,-0.037109375,-0.0950927734375,0.004638671875,-0.0091552734375,0.99542236328125,-9.599483155725515,2.0601119880385803,-26.721388353417804
91,3.6800577270005306,bno085,0.12109375,-1.67578125,9.44921875,-0.119140625,0.009765625,-0.0234375,-0.09765625,0.00469970703125,-0.013671875,0.9951171875,-9.91124722112035,2.0255163614577625,-27.23954586540104
92,3.7200581949982734,bno085,0.1953125,-1.484375,9.17578125,-0.080078125,0.001953125,-0.01953125,-0.10003662109375,0.00469970703125,-0.01409912109375,0.994873046875,-10.186908197976997,2.01788866098757,-27.28938907588911
93,3.760059126001579,bno085,0.1953125,-1.55859375,9.40625,-0.048828125,0.068359375,0.0078125,-0.10003662109375,0.00469970703125,-0.01409912109375,0.994873046875,-10.186908197976997,2.01788866098757,-27.28938907588911
94,3.800058167998941,bno085,-0.1484375,-1.7890625,9.8671875,-0.01171875,0.15234375,-0.001953125,-0.10137939453125,0.0064697265625,-0.0145263671875,0.99468994140625,-10.346422737966693,2.2139533203105457,-27.354764310230404
95,3.840056969998841,bno085,-0.26171875,-1.828125,10.21484375,-0.01171875,0.15234375,-0.001953125,-0.10223388671875,0.01116943359375,-0.0252685546875,0.994384765625,-10.502125288088585,2.650568747284952,-28.62705314752158
96,3.8800616599983186,bno085,-0.1875,-1.8671875,9.8984375,-0.060546875,0.0625,-0.015625,-0.102783203125,0.0133056640625,-0.02825927734375,0.99420166015625,-10.58621387661182,2.8649399053367044,-28.989698679644675
97,3.920058091000101,bno085,-0.30078125,-2.1328125,9.7109375,-0.14453125,0.060546875,-0.005859375,-0.105712890625,0.0145263671875,-0.02862548828125,0.993896484375,-10.93061395962395,2.9908924622869257,-29.047276382379284
98,3.9600585590014816,bno085,-0.30078125,-2.1328125,9.7109375,-0.072265625,-0.0546875,-0.05859375,-0.105712890625,0.0145263671875,-0.02862548828125,0.993896484375,-10.93061395962395,2.9908924622869257,-29.047276382379284
99,4.000057322999055,bno085,-0.0703125,-2.1328125,9.79296875,-0.044921875,-0.201171875,-0.025390625,-0.108154296875,0.0130615234375,-0.029541015625,0.99359130859375,-11.209884602258922,2.80619694821285,-29.14052030105401
100,4.040057088001049,bno085,-0.109375,-2.2109375,9.51953125,-0.044921875,-0.201171875,-0.025390625,-0.109619140625,0.0086669921875,-0.0299072265625,0.99346923828125,-11.362742381384292,2.295962091962925,-29.13941005060431
101,4.080057093000505,bno085,-0.26171875,-2.2890625,10.015625,-0.04296875,-0.064453125,-0.08203125,-0.11016845703125,0.00634765625,-0.03167724609375,0.993408203125,-11.423990341912177,2.011460089117738,-29.318507822100795
102,4.1200576160008495,bno085,-0.1875,-2.1328125,9.87109375,0.03125,0.01171875,-0.142578125,-0.1090087890625,0.00518798828125,-0.0347900390625,0.993408203125,-11.29632497342945,1.8521560085906126,-29.661969594710865
103,4.160059565998381,bno085,-0.03125,-1.94140625,9.98046875,0.08203125,0.0390625,-0.134765625,-0.1090087890625,0.00518798828125,-0.0347900390625,0.993408203125,-11.29632497342945,1.8521560085906126,-29.661969594710865
104,4.2000576259997615,bno085,0.12109375,-1.75,9.40625,0.021484375,0.19140625,-0.095703125,-0.1070556640625,0.004150390625,-0.03790283203125,0.9935302734375,-11.077663446238033,1.7110575104358179,-30.00713122741717
105,4.240061445998435,bno085,0.12109375,-1.67578125,9.3671875,0.021484375,0.19140625,-0.095703125,-0.104248046875,0.00726318359375,-0.04071044921875,0.99371337890625,-10.779784632490163,2.0517811250256024,-30.357718392566632
106,4.280056876999879,bno085,0.08203125,-1.7109375,9.09375,0.095703125,0.25390625,-0.13671875,-0.10272216796875,0.01312255859375,-0.0447998046875,0.99359130859375,-10.651978434963738,2.688960164612709,-30.880285429331362
107,4.320056827000371,bno085,-0.1875,-2.05859375,9.515625,-0.212890625,0.228515625,-0.234375,-0.106689453125,0.01947021484375,-0.0509033203125,0.9927978515625,-11.177270702549787,3.331071615732881,-31.64727534216116
108,4.36005786899841,bno085,0.08203125,-1.63671875,9.02734375,-0.044921875,0.130859375,-0.125,-0.106689453125,0.01947021484375,-0.0509033203125,0.9927978515625,-11.177270702549787,3.331071615732881,-31.64727534216116
109,4.40005691099941,bno085,-0.109375,-1.7109375,9.51953125,-0.1484375,0.173828125,-0.087890625,-0.1070556640625,0.02239990234375,-0.0548095703125,0.99249267578125,-11.260134166190289,3.6234399546073255,-32.125381711327854
110,4.440056711999205,bno085,-0.30078125,-1.7109375,9.67578125,-0.1484375,0.173828125,-0.087890625,-0.1080322265625,0.02606201171875,-0.057373046875,0.99212646484375,-11.413710149408749,4.008018387507731,-32.45933841055392
111,4.480056865999359,bno085,-0.4140625,-1.7890625,10.01953125,0.009765625,0.0234375,-0.103515625,-0.1077880859375,0.026611328125,-0.05987548828125,0.99200439453125,-11.404450675280216,4.04664826853726,-32.75140747246105
112,4.520056814999407,bno085,-0.37890625,-1.8671875,9.671875,0.13671875,-0.0546875,-0.033203125,-0.1064453125,0.02520751953125,-0.06121826171875,0.99212646484375,-11.246525466298085,3.882796504670126,-32.88753979617241
113,4.560057913000492,bno085,-0.453125,-1.90234375,9.7109375,0.138671875,-0.12109375,-0.03515625,-0.1064453125,0.02520751953125,-0.06121826171875,0.99212646484375,-11.246525466298085,3.882796504670126,-32.88753979617241
114,4.600056843999482,bno085,-0.33984375,-2.09375,9.75390625,0.0546875,-0.060546875,-0.0078125,-0.10516357421875,0.02288818359375,-0.0618896484375,0.99224853515625,-11.083689314227227,3.621118333834508,-32.93759458392222
115,4.640057738000905,bno085,-0.33984375,-2.1328125,9.83203125,0.0546875,-0.060546875,-0.0078125,-0.10333251953125,0.02056884765625,-0.06207275390625,0.99249267578125,-10.855559399471474,3.3685143379438762,-32.93181378747466
116,4.680058243000531,bno085,-0.26171875,-1.75,10.0546875,0.23046875,-0.134765625,-0.0546875,-0.097900390625,0.016845703125,-0.0631103515625,0.9930419921875,-10.206310294074513,2.9744129773967054,-33.00645503856888
117,4.720056117999775,bno085,-0.22265625,-1.67578125,9.98046875,0.22265625,-0.259765625,-0.0078125,-0.093994140625,0.010986328125,-0.063232421875,0.99346923828125,-9.71187863031825,2.334073199761256,-32.963670411966326
118,4.760056734998216,bno085,-0.109375,-1.63671875,9.75390625,0.03125,-0.1015625,-0.068359375,-0.09381103515625,0.0079345703125,-0.0643310546875,0.99346923828125,-9.671798574291083,1.978054359110853,-33.06327969710073
119,4.800057314001606,bno085,0.00390625,-1.484375,10.01953125,0.134765625,-0.208984375,-0.01953125,-0.09381103515625,0.0079345703125,-0.0643310546875,0.99346923828125,-9.671798574291083,1.978054359110853,-33.06327969710073
120,4.84006054099882,bno085,0.12109375,-1.59765625,9.59765625,0.134765625,-0.208984375,-0.01953125,-0.0897216796875,0.00323486328125,-0.07220458984375,0.99334716796875,-9.191554298885647,1.4088809693095943,-33.92633771817356
121,4.880058768001618,bno085,0.12109375,-1.40625,9.7109375,0.076171875,0.083984375,-0.037109375,-0.0855712890625,0.00299072265625,-0.07464599609375,0.9935302734375,-8.721069571682106,1.396901317118015,-34.20526020616366
122,4.920070735999616,bno085,0.08203125,-1.3671875,9.59375,0.017578125,0.123046875,-0.013671875,-0.08404541015625,0.00604248046875,-0.075439453125,0.99359130859375,-8.575806916255857,1.7520424370406413,-34.319446149644186
123,4.9600577790006355,bno085,0.12109375,-1.3671875,9.51953125,0.091796875,0.1328125,-0.017578125,-0.08404541015625,0.00604248046875,-0.075439453125,0.99359130859375,-8.575806916255857,1.7520424370406413,-34.319446149644186
124,5.0000574689984205,bno085,0.12109375,-1.328125,9.2890625,0.146484375,0.185546875,-0.001953125,-0.0819091796875,0.00946044921875,-0.07611083984375,0.99365234375,-8.363788950170814,2.1554384217732583,-34.420873128137494
125,5.040057140999124,bno085,-0.1484375,-1.4453125,9.4453125,-0.099609375,0.181640625,-0.001953125,-0.07794189453125,0.01373291015625,-0.08062744140625,0.99359130859375,-7.9683564601627355,2.6464902886475636,-34.96750883133161
126,5.080058071998792,bno085,-0.22265625,-1.3671875,9.5546875,-0.099609375,0.181640625,-0.001953125,-0.07763671875,0.01751708984375,-0.08172607421875,0.99346923828125,-7.97561765619192,3.073141322173683,-35.120342639284026
127,5.120056872998248,bno085,-0.30078125,-1.55859375,9.51953125,0.00390625,0.083984375,-0.01171875,-0.07623291015625,0.0196533203125,-0.0819091796875,0.9935302734375,-7.836931538865829,3.328774993721432,-35.15446743409234
128,5.160063303999777,bno085,-0.26171875,-1.40625,9.33203125,-0.005859375,0.029296875,-0.001953125,-0.07623291015625,0.0196533203125,-0.0819091796875,0.9935302734375,-7.836931538865829,3.328774993721432,-35.15446743409234
129,5.200057993999508,bno085,-0.33984375,-1.484375,9.63671875,-0.0078125,0.001953125,-0.01171875,-0.07550048828125,0.02020263671875,-0.08197021484375,0.99359130859375,-7.75896641007255,3.3980214639179454,-35.164282751498455
130,5.240057202998287,bno085,-0.33984375,-1.40625,9.87109375,-0.0078125,0.001953125,-0.01171875,-0.07464599609375,0.02020263671875,-0.0869140625,0.99322509765625,-7.686703291227753,3.373328339913619,-35.73124566507837
131,5.280056966999837,bno085,-0.109375,-1.21484375,9.29296875,0.166015625,-0.068359375,-0.02734375,-0.07171630859375,0.01885986328125,-0.08843994140625,0.9932861328125,-7.344359593362761,3.240136133749114,-35.89233114451379
132,5.320057436001662,bno085,-0.26171875,-1.29296875,9.90234375,-0.041015625,0.037109375,0.01171875,-0.0714111328125,0.01953125,-0.0885009765625,0.99334716796875,-7.317375462032673,3.31953186352346,-35.903857785334694
133,5.360057015001075,bno085,-0.22265625,-1.4453125,9.7890625,0.068359375,0.041015625,-0.0390625,-0.0714111328125,0.01953125,-0.0885009765625,0.99334716796875,-7.317375462032673,3.31953186352346,-35.903857785334694
134,5.400056668000616,bno085,-0.22265625,-1.21484375,9.9375,0.02734375,0.111328125,0.00390625,-0.0693359375,0.0201416015625,-0.0892333984375,0.993408203125,-7.090040575091008,3.4059535606071494,-35.9884558308172
135,5.440057228999649,bno085,-0.33984375,-1.3671875,10.13671875,0.02734375,0.111328125,0.00390625,-0.06805419921875,0.02294921875,-0.09271240234375,0.99310302734375,-6.9928528752789125,3.718406175281122,-36.404294065901844
136,5.480056955999316,bno085,-0.4140625,-1.40625,9.828125,-0.00390625,0.107421875,0.0,-0.0670166015625,0.025390625,-0.0931396484375,0.9930419921875,-6.903763170654884,4.005141441686279,-36.46641614358623
137,5.520056942001247,bno085,-0.33984375,-1.17578125,9.515625,0.00390625,0.06640625,-0.013671875,-0.0675048828125,0.02752685546875,-0.09375,0.992919921875,-6.9878135446496925,4.239660217172824,-36.55192241161367
138,5.560056948001147,bno085,-0.37890625,-1.17578125,9.5546875,0.1328125,-0.048828125,0.03125,-0.0675048828125,0.02752685546875,-0.09375,0.992919921875,-6.9878135446496925,4.239660217172824,-36.55192241161367
139,5.600056749000942,bno085,-0.4140625,-1.29296875,9.171875,-0.125,0.013671875,0.0,-0.066162109375,0.02734375,-0.09332275390625,0.9930419921875,-6.82927588117808,4.235909427010899,-36.49790778440387
140,5.640057032000186,bno085,-0.453125,-1.25390625,9.5546875,-0.125,0.013671875,0.0,-0.06732177734375,0.02783203125,-0.09625244140625,0.99267578125,-6.985606056874456,4.261415388158872,-36.84174447743838
141,5.680057388999558,bno085,-0.4921875,-1.328125,9.67578125,0.064453125,-0.109375,0.060546875,-0.06683349609375,0.025634765625,-0.09576416015625,0.9927978515625,-6.900999839077794,4.019455621013507,-36.769916417033336
142,5.720056227000896,bno085,-0.453125,-1.29296875,9.71484375,-0.052734375,-0.048828125,0.03515625,-0.06793212890625,0.02435302734375,-0.09478759765625,0.99285888671875,-7.0063444085824536,3.867137132651066,-36.65180544013774
143,5.760057194998808,bno085,-0.453125,-1.3671875,9.55859375,-0.078125,-0.041015625,0.044921875,-0.06793212890625,0.02435302734375,-0.09478759765625,0.99285888671875,-7.0063444085824536,3.867137132651066,-36.65180544013774
144,5.8000571449993,bno085,-0.37890625,-1.29296875,9.67578125,0.0703125,-0.138671875,0.05859375,-0.068603515625,0.023193359375,-0.0936279296875,0.99298095703125,-7.063648602109041,3.734773004608347,-36.51251353723073
145,5.840058778998355,bno085,-0.33984375,-1.40625,9.515625,0.0703125,-0.138671875,0.05859375,-0.068115234375,0.0208740234375,-0.09490966796875,0.992919921875,-6.988168590646974,3.468118294218076,-36.6440665892035
146,5.880066229001386,bno085,-0.1484375,-1.21484375,9.515625,0.013671875,-0.046875,0.01171875,-0.0689697265625,0.02001953125,-0.0948486328125,0.992919921875,-7.076159279584352,3.3618376734056357,-36.63347664404358
147,5.920067882001604,bno085,-0.1875,-1.29296875,9.828125,-0.099609375,-0.01171875,0.052734375,-0.06982421875,0.019775390625,-0.0936279296875,0.99298095703125,-7.164835911045636,3.3321613306436353,-36.49281021475724
148,5.960057775999303,bno085,-0.0703125,-1.21484375,9.484375,-0.0703125,-0.091796875,0.080078125,-0.06982421875,0.019775390625,-0.0936279296875,0.99298095703125,-7.164835911045636,3.3321613306436353,-36.49281021475724
149,6.000057354998717,bno085,0.12109375,-1.0625,9.41015625,0.111328125,-0.021484375,0.109375,-0.07061767578125,0.0177001953125,-0.09161376953125,0.99310302734375,-7.221958203155306,3.099584553432555,-36.248279741594715
150,6.040057248999801,bno085,-0.22265625,-1.29296875,10.05859375,-0.11328125,-0.048828125,0.0703125,-0.06842041015625,0.01568603515625,-0.0889892578125,0.9935302734375,-6.93599368886152,2.908978336125605,-35.93063832369853
151,6.0800577539994265,bno085,-0.26171875,-1.328125,10.359375,-0.11328125,-0.048828125,0.0703125,-0.07037353515625,0.01544189453125,-0.0870361328125,0.99359130859375,-7.147948255367452,2.8730438779672145,-35.70710809588721
152,6.120057055999496,bno085,-0.22265625,-1.328125,10.25390625,0.013671875,-0.0703125,0.05859375,-0.0701904296875,0.0142822265625,-0.08551025390625,0.9937744140625,-7.10811052827987,2.752019890909361,-35.52432102624431
153,6.160056912998698,bno085,-0.1875,-1.55859375,10.48046875,-0.001953125,0.01953125,-0.01171875,-0.0701904296875,0.0142822265625,-0.08551025390625,0.9937744140625,-7.10811052827987,2.752019890909361,-35.52432102624431
154,6.200056844001665,bno085,-0.109375,-1.484375,10.40234375,0.087890625,0.021484375,0.001953125,-0.06903076171875,0.01434326171875,-0.08526611328125,0.99383544921875,-6.974508247034509,2.7718317103799035,-35.49493545547186
155,6.240059644998837,bno085,-0.109375,-1.40625,10.09375,0.1171875,0.021484375,-0.00390625,-0.06646728515625,0.014892578125,-0.0872802734375,0.99383544921875,-6.696121826365499,2.8483708573377915,-35.72695386532874
156,6.280059223998251,bno085,-0.0703125,-1.17578125,9.87109375,0.1171875,0.021484375,-0.00390625,-0.065185546875,0.015869140625,-0.088134765625,0.99383544921875,-6.56373921389179,2.9679313212733733,-35.8293731796068
157,6.320058711000456,bno085,-0.22265625,-1.328125,9.98046875,0.068359375,0.087890625,0.021484375,-0.06414794921875,0.01806640625,-0.08807373046875,0.993896484375,-6.468024988269814,3.229409290731301,-35.8337167547127
158,6.3600588090012025,bno085,-0.26171875,-1.25390625,9.9375,0.078125,0.02734375,-0.01171875,-0.0621337890625,0.01959228515625,-0.08819580078125,0.99395751953125,-6.254043797122089,3.423235325185643,-35.852705412150584
159,6.400057536000531,bno085,-0.22265625,-1.25390625,9.6328125,0.087890625,0.00390625,-0.01171875,-0.0621337890625,0.01959228515625,-0.08819580078125,0.99395751953125,-6.254043797122089,3.423235325185643,-35.852705412150584
160,6.440056560000812,bno085,-0.22265625,-1.17578125,9.75390625,0.021484375,-0.001953125,0.02734375,-0.05975341796875,0.01947021484375,-0.08837890625,0.99407958984375,-5.981232520153455,3.4327047757925224,-35.86878430643206
161,6.480056879001495,bno085,-0.30078125,-1.21484375,9.671875,0.021484375,-0.001953125,0.02734375,-0.058349609375,0.0191650390625,-0.08795166015625,0.99420166015625,-5.815095241659902,3.4143035736140472,-35.81546746042034
162,6.520058570000401,bno085,-0.109375,-1.1015625,9.13671875,0.115234375,-0.126953125,-0.0078125,-0.05596923828125,0.01617431640625,-0.08782958984375,0.99444580078125,-5.511126207866486,3.0980674161721233,-35.78330794310415
163,6.56005972300045,bno085,-0.03125,-1.21484375,9.33203125,0.009765625,-0.208984375,0.03515625,-0.05633544921875,0.0115966796875,-0.08624267578125,0.99462890625,-5.498483699506818,2.579332666950433,-35.57973862556079
164,6.600057247000223,bno085,-0.1875,-1.25390625,9.40625,-0.087890625,-0.20703125,0.060546875,-0.05633544921875,0.0115966796875,-0.08624267578125,0.99462890625,-5.498483699506818,2.579332666950433,-35.57973862556079
165,6.640057622000313,bno085,0.00390625,-1.1015625,9.37109375,-0.1484375,-0.05859375,0.0703125,-0.05828857421875,0.0069580078125,-0.084716796875,0.99468994140625,-5.668990247023519,2.0378585164851435,-35.383976622871
166,6.6800582940013555,bno085,-0.109375,-1.21484375,10.015625,-0.1484375,-0.05859375,0.0703125,-0.06121826171875,0.00543212890625,-0.0828857421875,0.99468994140625,-5.982394774999584,1.844290332719123,-35.167136452850805
167,6.720059151000896,bno085,-0.03125,-1.29296875,9.87109375,-0.05078125,-0.015625,0.083984375,-0.06353759765625,0.00482177734375,-0.080810546875,0.99468994140625,-6.234250955842121,1.763285467998783,-34.925689701650114
168,6.760057397001219,bno085,0.04296875,-1.17578125,9.59375,-0.013671875,-0.0703125,0.080078125,-0.063720703125,0.0032958984375,-0.07879638671875,0.994873046875,-6.2341527709934015,1.5979248942477142,-34.68663993079693
169,6.800058808999893,bno085,0.00390625,-1.21484375,9.63671875,0.080078125,-0.009765625,0.072265625,-0.063720703125,0.0032958984375,-0.07879638671875,0.994873046875,-6.2341527709934015,1.5979248942477142,-34.68663993079693
170,6.840060259000893,bno085,0.16015625,-0.79296875,9.33203125,0.224609375,0.0390625,0.119140625,-0.06170654296875,0.0032958984375,-0.0770263671875,0.9951171875,-5.997386770607728,1.6248791416866535,-34.483141341484625
171,6.880058522998297,bno085,0.16015625,-0.90625,9.55859375,0.224609375,0.0390625,0.119140625,-0.0570068359375,0.00384521484375,-0.07440185546875,0.99560546875,-5.455208658578787,1.7406892439378239,-34.184004766135246
172,6.920069342999341,bno085,0.1953125,-0.71484375,9.515625,0.203125,-0.119140625,0.134765625,-0.0528564453125,0.00152587890625,-0.07122802734375,0.99603271484375,-4.949359516959966,1.5235275965302975,-33.80954279965297
173,6.960057514999789,bno085,-0.03125,-1.21484375,9.75390625,-0.072265625,0.052734375,0.033203125,-0.0526123046875,0.00164794921875,-0.0693359375,0.9962158203125,-4.91635611729463,1.5467044621928367,-33.593010878030064
174,7.000060890000896,bno085,0.16015625,-1.1015625,9.515625,0.283203125,-0.05078125,0.10546875,-0.0526123046875,0.00164794921875,-0.0693359375,0.9962158203125,-4.91635611729463,1.5467044621928367,-33.593010878030064
175,7.040057302998321,bno085,-0.03125,-1.21484375,9.94140625,-0.078125,0.087890625,0.072265625,-0.04656982421875,-0.000244140625,-0.067138671875,0.99664306640625,-4.202467953718194,1.3853630583432748,-33.33492830505467
176,7.080057808001584,bno085,-0.1484375,-1.17578125,10.55859375,-0.078125,0.087890625,0.072265625,-0.04766845703125,0.00115966796875,-0.06549072265625,0.9967041015625,-4.3336842899429096,1.5426471564243613,-33.14992166939342
177,7.120057035001082,bno085,0.16015625,-1.17578125,9.8671875,0.017578125,-0.134765625,0.048828125,-0.0489501953125,-0.00091552734375,-0.064453125,0.9967041015625,-4.461448923089749,1.299293740061024,-33.023764142607995
178,7.160058706998825,bno085,0.04296875,-1.21484375,10.44140625,-0.017578125,0.021484375,0.068359375,-0.048583984375,-0.0010986328125,-0.06298828125,0.996826171875,-4.413748726693877,1.2858863704630545,-32.85519225622535
179,7.2000574900012,bno085,0.00390625,-1.29296875,10.8984375,0.107421875,-0.06640625,-0.013671875,-0.048583984375,-0.0010986328125,-0.06298828125,0.996826171875,-4.413748726693877,1.2858863704630545,-32.85519225622535
180,7.240058846000466,bno085,0.16015625,-1.13671875,10.3984375,0.185546875,-0.109375,-0.021484375,-0.047607421875,-0.002197265625,-0.06280517578125,0.99688720703125,-4.293435710445415,1.1679179337045047,-32.831105193103625
181,7.280057500000112,bno085,0.1953125,-0.9453125,10.25390625,0.185546875,-0.109375,-0.021484375,-0.0447998046875,-0.00445556640625,-0.06317138671875,0.99700927734375,-3.9568016610184387,0.9288781939128212,-32.8683210116869
182,7.320057078999525,bno085,0.12109375,-1.0234375,10.3203125,0.02734375,-0.083984375,-0.01953125,-0.04351806640625,-0.00689697265625,-0.0634765625,0.99700927734375,-3.7930156239772983,0.6581988547305001,-32.89781355216471
183,7.3600584539999545,bno085,0.1953125,-0.83203125,9.79296875,-0.033203125,-0.03515625,-0.025390625,-0.04351806640625,-0.00836181640625,-0.06402587890625,0.9969482421875,-3.7835442448527252,0.48926473020215333,-32.95707749334208
184,7.400056719001441,bno085,0.1953125,-0.87109375,9.8984375,0.005859375,-0.072265625,-0.01953125,-0.04351806640625,-0.00836181640625,-0.06402587890625,0.9969482421875,-3.7835442448527252,0.48926473020215333,-32.95707749334208
185,7.440057168001658,bno085,0.1953125,-0.90625,9.59375,-0.029296875,-0.021484375,0.001953125,-0.0430908203125,-0.01007080078125,-0.06427001953125,0.9969482421875,-3.7227279385916794,0.29634684610654494,-32.98151558614968
186,7.480060729001707,bno085,0.1953125,-1.0625,9.79296875,-0.029296875,-0.021484375,0.001953125,-0.04339599609375,-0.01092529296875,-0.064208984375,0.9969482421875,-3.7513720732505806,0.1965448977169481,-32.97215504173537
187,7.520058492998942,bno085,0.3515625,-0.9453125,9.4453125,0.013671875,-0.02734375,-0.037109375,-0.04400634765625,-0.01123046875,-0.0650634765625,0.996826171875,-3.820454590138434,0.15491293805891404,-33.06834528399962
188,7.560058183000365,bno085,0.3515625,-0.984375,9.51953125,0.09375,-0.0625,-0.017578125,-0.04296875,-0.01214599609375,-0.06536865234375,0.99688720703125,-3.6957263142149994,0.05710841413126089,-33.103061794406635
189,7.6000568739982555,bno085,0.3125,-0.87109375,9.59765625,-0.087890625,0.064453125,-0.00390625,-0.04296875,-0.01214599609375,-0.06536865234375,0.99688720703125,-3.6957263142149994,0.05710841413126089,-33.103061794406635
190,7.640058119999594,bno085,0.3125,-0.79296875,9.48828125,0.091796875,0.017578125,-0.001953125,-0.04449462890625,-0.01068115234375,-0.06549072265625,0.996826171875,-3.8814853032449768,0.2128627555330663,-33.11840869408562
191,7.680058310001186,bno085,0.234375,-0.83203125,9.51953125,0.091796875,0.017578125,-0.001953125,-0.0435791015625,-0.010009765625,-0.065673828125,0.996826171875,-3.7819120929138643,0.2960208007556689,-33.14210010409521
192,7.720057703998464,bno085,0.1953125,-0.90625,9.06640625,0.046875,0.013671875,0.005859375,-0.04248046875,-0.0091552734375,-0.06561279296875,0.99688720703125,-3.662465586839847,0.40211214492048253,-33.13856254374261
193,7.760059690001071,bno085,0.16015625,-0.71484375,9.0625,0.0859375,0.078125,0.013671875,-0.03997802734375,-0.00811767578125,-0.06536865234375,0.99700927734375,-3.3833000561405617,0.5400729496789255,-33.11566659324448
194,7.800057288000971,bno085,-0.109375,-0.640625,9.55859375,-0.02734375,0.12109375,-0.046875,-0.03997802734375,-0.00811767578125,-0.06536865234375,0.99700927734375,-3.3833000561405617,0.5400729496789255,-33.11566659324448
195,7.840059923000808,bno085,0.46484375,0.0859375,9.29296875,0.02734375,-0.005859375,0.142578125,-0.0389404296875,-0.00567626953125,-0.066162109375,0.99700927734375,-3.2848867787142693,0.8252493242200178,-33.212771723769336
196,7.880058057999122,bno085,0.234375,-0.79296875,9.06640625,0.02734375,-0.005859375,0.142578125,-0.03887939453125,-0.00457763671875,-0.06353759765625,0.9971923828125,-3.27910795582324,0.9569693592010422,-32.91375258822829
197,7.920058266001433,bno085,-0.109375,-1.29296875,9.671875,-0.001953125,0.119140625,0.0703125,-0.0391845703125,-0.001220703125,-0.06109619140625,0.99737548828125,-3.3311354409057006,1.343950609104957,-32.64059098618108
198,7.960057290001714,bno085,0.12109375,-1.13671875,10.09765625,0.123046875,0.1953125,0.07421875,-0.0372314453125,0.004150390625,-0.0594482421875,0.99755859375,-3.1394495955263384,1.975181316899903,-32.462610794581536
199,8.00005849900117,bno085,-0.03125,-1.0625,10.25390625,0.248046875,0.3125,0.029296875,-0.0372314453125,0.004150390625,-0.0594482421875,0.99755859375,-3.1394495955263384,1.975181316899903,-32.462610794581536
200,8.040058892998786,bno085,-0.0703125,-0.87109375,10.59375,0.322265625,0.275390625,0.013671875,-0.0302734375,0.0115966796875,-0.05865478515625,0.99774169921875,-2.3904836842584842,2.875336664499252,-32.37828736569104
201,8.080059563999384,bno085,-0.37890625,-0.640625,10.671875,0.322265625,0.275390625,0.013671875,-0.02203369140625,0.01800537109375,-0.0584716796875,0.99786376953125,-1.489597867358361,3.664027959393401,-32.349860654986365
202,8.120057865999115,bno085,-0.4140625,-0.5625,10.09765625,0.134765625,0.134765625,0.0078125,-0.0179443359375,0.02239990234375,-0.0584716796875,0.99786376953125,-1.050934976758513,4.194265884884732,-32.342155871719385
203,8.160058166999079,bno085,-0.30078125,-0.21875,9.8984375,0.154296875,0.046875,0.044921875,-0.0150146484375,0.023681640625,-0.05804443359375,0.9979248046875,-0.7213179688124155,4.360414677071015,-32.28537013690005
204,8.200057597998239,bno085,-0.53125,-0.5625,10.44140625,0.09375,-0.095703125,-0.00390625,-0.0150146484375,0.023681640625,-0.05804443359375,0.9979248046875,-0.7213179688124155,4.360414677071015,-32.28537013690005
205,8.240057417999196,bno085,-0.453125,-0.33203125,10.171875,-0.083984375,0.009765625,0.001953125,-0.01220703125,0.021484375,-0.05810546875,0.99798583984375,-0.3853167541390771,4.127624095486766,-32.28554883489402
206,8.280059348999202,bno085,-0.453125,-0.296875,10.40234375,-0.083984375,0.009765625,0.001953125,-0.01275634765625,0.02081298828125,-0.05804443359375,0.99798583984375,-0.44340178009895714,4.047082888199148,-32.28011993454236
207,8.320058836001408,bno085,-0.453125,-0.1796875,10.6328125,0.14453125,-0.05859375,-0.021484375,-0.0096435546875,0.01898193359375,-0.05841064453125,0.998046875,-0.07679168777148605,3.858662630597256,-32.316222764961935
208,8.360057803998643,bno085,-0.37890625,-0.2578125,9.8671875,-0.017578125,-0.07421875,-0.005859375,-0.00994873046875,0.0172119140625,-0.05865478515625,0.99810791015625,-0.1013387552421966,3.6544756244482555,-32.34672041805397
209,8.400059290001082,bno085,-0.30078125,-0.33203125,9.8984375,-0.001953125,-0.078125,-0.01171875,-0.00994873046875,0.0172119140625,-0.05865478515625,0.99810791015625,-0.1013387552421966,3.6544756244482555,-32.34672041805397
210,8.440058572999988,bno085,-0.30078125,-0.37109375,9.83203125,-0.1015625,-0.037109375,-0.029296875,-0.00994873046875,0.0152587890625,-0.058837890625,0.99810791015625,-0.08920081935311817,3.43117674523386,-32.36928106673243
211,8.48005730099976,bno085,-0.30078125,-0.37109375,9.8984375,-0.1015625,-0.037109375,-0.029296875,-0.01190185546875,0.01416015625,-0.0592041015625,0.998046875,-0.30723620883946345,3.292595012232514,-32.41538622005744
212,8.520056917001057,bno085,-0.109375,-0.140625,9.59375,0.0546875,-0.076171875,-0.029296875,-0.01202392578125,0.01275634765625,-0.05987548828125,0.998046875,-0.31503780148978217,3.1317782271123935,-32.49384119297248
213,8.560058126000513,bno085,-0.1875,-0.33203125,9.55859375,-0.01953125,0.046875,0.0078125,-0.011962890625,0.01361083984375,-0.05975341796875,0.998046875,-0.3132930437611418,3.2298473676309536,-32.47917266557742
214,8.600056630999461,bno085,-0.1484375,-0.2578125,9.515625,0.015625,0.080078125,0.025390625,-0.011962890625,0.01361083984375,-0.05975341796875,0.998046875,-0.3132930437611418,3.2298473676309536,-32.47917266557742
215,8.640055061998282,bno085,-0.109375,-0.140625,9.484375,0.0859375,0.009765625,0.033203125,-0.0111083984375,0.0152587890625,-0.0594482421875,0.998046875,-0.22512793866445652,3.423916361640404,-32.44146846487388
216,8.680059104000975,bno085,-0.109375,-0.2578125,9.41015625,0.0859375,0.009765625,0.033203125,-0.01007080078125,0.01617431640625,-0.05853271484375,0.99810791015625,-0.10769819185671509,3.5347716304355967,-32.33362759898673
217,8.720060867999564,bno085,-0.1875,-0.33203125,9.67578125,0.05859375,0.0625,0.14453125,-0.01025390625,0.01788330078125,-0.05548095703125,0.99822998046875,-0.12328019729412625,3.7258836397411064,-31.981534138343235
218,8.760057133000373,bno085,-0.33984375,-0.21875,9.7109375,0.267578125,0.0234375,0.1484375,-0.0040283203125,0.01751708984375,-0.05145263671875,0.99853515625,0.6141085493906878,3.716342091041292,-31.505972632137382
219,8.800055619001796,bno085,-0.33984375,-0.06640625,9.8984375,0.025390625,0.09375,0.099609375,-0.0040283203125,0.01751708984375,-0.05145263671875,0.99853515625,0.6141085493906878,3.716342091041292,-31.505972632137382
220,8.840056086999539,bno085,-0.4921875,0.01171875,9.90234375,0.107421875,0.130859375,0.01953125,-0.0009765625,0.01922607421875,-0.049072265625,0.99859619140625,0.9673852757058025,3.924628820732555,-31.22239359920077
221,8.880059518000053,bno085,-0.5703125,0.01171875,10.25390625,0.107421875,0.130859375,0.01953125,0.0008544921875,0.02325439453125,-0.04888916015625,0.99853515625,1.1563046246452824,4.39553750762101,-31.188651486408165
222,8.920058744999551,bno085,-0.53125,0.203125,9.83203125,0.32421875,0.046875,0.0078125,0.007080078125,0.02410888671875,-0.04864501953125,0.99847412109375,1.8669363582133618,4.527006819126249,-31.140609270489854
223,8.96005743600108,bno085,-0.4921875,0.28125,9.75390625,0.0625,0.021484375,0.060546875,0.01043701171875,0.02459716796875,-0.04754638671875,0.99853515625,2.256266147683236,4.597699343086027,-31.00316794192715
224,9.000059551999584,bno085,-0.53125,0.2421875,10.171875,0.033203125,0.052734375,0.013671875,0.01043701171875,0.02459716796875,-0.04754638671875,0.99853515625,2.256266147683236,4.597699343086027,-31.00316794192715
225,9.04005772399978,bno085,-0.4921875,0.1640625,9.71484375,-0.001953125,0.052734375,0.02734375,0.01141357421875,0.02459716796875,-0.04705810546875,0.99853515625,2.3713391341781143,4.601158113510426,-30.944030992056767
226,9.0800567840015,bno085,-0.4140625,0.39453125,9.87109375,-0.001953125,0.052734375,0.02734375,0.01226806640625,0.02496337890625,-0.04644775390625,0.99853515625,2.471358151624444,4.645336795321199,-30.86998889287577
227,9.12005690099977,bno085,-0.37890625,0.35546875,9.75390625,0.04296875,0.005859375,-0.01171875,0.012939453125,0.0255126953125,-0.046630859375,0.99847412109375,2.544388418369879,4.712314621667925,-30.88693608055826
228,9.160059146001004,bno085,-0.53125,0.0859375,9.59765625,0.029296875,0.01171875,0.099609375,0.01361083984375,0.025634765625,-0.044677734375,0.99859619140625,2.633472180115386,4.722461894438475,-30.660045096581285
229,9.200057244001073,bno085,-0.453125,0.31640625,9.90234375,0.11328125,-0.072265625,0.06640625,0.01361083984375,0.025634765625,-0.044677734375,0.99859619140625,2.633472180115386,4.722461894438475,-30.660045096581285
230,9.240057507999154,bno085,-0.68359375,-0.02734375,10.48046875,0.25,-0.1796875,-0.05078125,0.01708984375,0.023193359375,-0.0433349609375,0.9986572265625,3.0524585696972917,4.45477751473381,-30.50459427561061
231,9.280057476000366,bno085,-0.64453125,-0.10546875,10.09375,0.25,-0.1796875,-0.05078125,0.02301025390625,0.01904296875,-0.044921875,0.99853515625,3.741294310004263,4.016491835468755,-30.689526660572973
232,9.320057184999314,bno085,-0.5703125,0.47265625,9.671875,0.435546875,0.1015625,-0.5078125,0.03265380859375,0.020751953125,-0.05548095703125,0.9976806640625,4.77541801321368,4.323827356358326,-31.868930534115968
233,9.360056746001646,bno085,-0.68359375,0.203125,10.25390625,0.21875,0.13671875,-0.40625,0.041015625,0.02484130859375,-0.06695556640625,0.99658203125,5.634619977424595,4.921524477402427,-33.13844484060904
234,9.400056899001356,bno085,-0.64453125,1.0078125,10.09765625,0.197265625,-0.07421875,-0.080078125,0.041015625,0.02484130859375,-0.06695556640625,0.99658203125,5.634619977424595,4.921524477402427,-33.13844484060904
235,9.440056644998549,bno085,-0.60546875,1.19921875,10.21484375,0.0703125,-0.068359375,-0.01171875,0.04638671875,0.02362060546875,-0.0701904296875,0.99615478515625,6.237718086785598,4.8463233755871045,-33.50117093063718
236,9.480057242999465,bno085,-0.33984375,1.19921875,9.79296875,0.0703125,-0.068359375,-0.01171875,0.04718017578125,0.02301025390625,-0.07080078125,0.99609375,6.329190586122654,4.787474616079603,-33.573151980965186
237,9.520057081001141,bno085,-0.4140625,1.0078125,9.75390625,-0.009765625,-0.001953125,0.076171875,0.04644775390625,0.02294921875,-0.0689697265625,0.99627685546875,6.25776152507916,4.76122264537088,-33.36547768115171
238,9.56005701200047,bno085,-0.453125,0.890625,9.7109375,-0.033203125,-0.037109375,0.107421875,0.04522705078125,0.02264404296875,-0.0665283203125,0.99652099609375,6.135906321281026,4.699244371629888,-33.09080092965639
239,9.600057146999461,bno085,-0.4140625,0.9296875,9.6328125,-0.166015625,-0.03515625,0.056640625,0.04522705078125,0.02264404296875,-0.0665283203125,0.99652099609375,6.135906321281026,4.699244371629888,-33.09080092965639
240,9.640059929999552,bno085,-0.453125,0.69921875,9.6328125,-0.0859375,-0.0625,0.05859375,0.042724609375,0.02166748046875,-0.06500244140625,0.9967041015625,5.865204179531549,4.558248383246262,-32.92916679292197
241,9.680057898000086,bno085,-0.453125,0.6640625,9.75390625,-0.0859375,-0.0625,0.05859375,0.04083251953125,0.0201416015625,-0.0635986328125,0.9969482421875,5.667529484287965,4.360734781168973,-32.78353851521234
242,9.720057531998464,bno085,-0.33984375,0.890625,9.75390625,-0.046875,-0.099609375,0.068359375,0.038818359375,0.01812744140625,-0.06207275390625,0.99713134765625,5.4590414464827255,4.106132796999282,-32.62615700948225
243,9.76005750100012,bno085,-0.4140625,0.73828125,9.75390625,-0.1328125,-0.03125,0.0546875,0.03631591796875,0.0169677734375,-0.0606689453125,0.99737548828125,5.188110905800081,3.9473541701932624,-32.47839721970138
244,9.80005706099837,bno085,-0.453125,0.73828125,9.71484375,-0.029296875,-0.005859375,0.013671875,0.03631591796875,0.0169677734375,-0.0606689453125,0.99737548828125,5.188110905800081,3.9473541701932624,-32.47839721970138
245,9.840057010998862,bno085,-0.453125,0.625,9.71484375,0.052734375,0.03125,0.009765625,0.03533935546875,0.0164794921875,-0.05999755859375,0.9974365234375,5.083061046895964,3.8806515391569936,-32.40630276278266
246,9.880060257000878,bno085,-0.5703125,0.546875,9.515625,0.052734375,0.03125,0.009765625,0.03717041015625,0.01678466796875,-0.05987548828125,0.99737548828125,5.29165768230922,3.9271245669829598,-32.386263135711914
247,9.920056465001835,bno085,-0.60546875,0.43359375,9.17578125,0.18359375,0.115234375,-0.044921875,0.04144287109375,0.01861572265625,-0.06048583984375,0.99713134765625,5.766170128290507,4.169292592037248,-32.434197964024605
248,9.960058710999874,bno085,-0.5703125,0.43359375,9.09375,0.310546875,0.091796875,-0.04296875,0.04681396484375,0.02142333984375,-0.06011962890625,0.99688720703125,6.36685928709431,4.523675742846722,-32.358214848122934
