sample,time_s,sensor,accel_x_mps2,accel_y_mps2,accel_z_mps2,gyro_x_radps,gyro_y_radps,gyro_z_radps,quat_i,quat_j,quat_k,quat_real,roll_deg,pitch_deg,yaw_deg
0,0.04005482000138727,bno085,-0.671875,-0.26953125,9.67578125,0.029296875,-0.0078125,-0.1796875,-0.020751953125,0.02447509765625,0.37420654296875,0.9267578125,0.00012540904807188379,0.00010633186120787404,-6.954901146320583e-06
1,0.08005480700012413,bno085,-0.7109375,-0.234375,9.63671875,0.025390625,0.00390625,-0.00390625,-0.0206298828125,0.0260009765625,0.3846435546875,0.9224853515625,0.04042325945447466,0.14379599392639572,1.2993265707581825
2,0.12005368200152589,bno085,-0.671875,-0.30859375,9.67578125,0.044921875,-0.013671875,-0.22265625,-0.0206298828125,0.0260009765625,0.3846435546875,0.9224853515625,0.04042325945447466,0.14379599392639572,1.2993265707581825
3,0.16005322400087607,bno085,-0.7109375,-0.1953125,9.6328125,0.0,-0.009765625,-0.001953125,-0.01959228515625,0.026611328125,0.38262939453125,0.92333984375,0.1842976478651698,0.16532159382801923,1.054228834911505
4,0.20005322900033207,bno085,-0.7109375,-0.1171875,9.671875,0.0,-0.009765625,-0.001953125,-0.01959228515625,0.026611328125,0.38262939453125,0.92333984375,0.1842976478651698,0.16532159382801923,1.054228834911505
5,0.2400558640001691,bno085,-0.671875,-0.1953125,9.671875,0.005859375,-0.005859375,0.0078125,-0.01934814453125,0.026611328125,0.38311767578125,0.923095703125,0.2085321436810559,0.1538874527128619,1.113798108734258
6,0.2800537210005132,bno085,-0.7109375,-0.15625,9.671875,0.0,0.0,0.009765625,-0.019287109375,0.0267333984375,0.38372802734375,0.9228515625,0.2180893149728188,0.16326988038789172,1.1904460698392236
7,0.3200536700005614,bno085,-0.74609375,-0.234375,9.59765625,0.099609375,-0.23828125,0.107421875,-0.019287109375,0.0267333984375,0.38372802734375,0.9228515625,0.2180893149728188,0.16326988038789172,1.1904460698392236
8,0.36005358300099033,bno085,-0.515625,-0.078125,9.7109375,0.115234375,-0.29296875,0.044921875,-0.0162353515625,0.024658203125,0.38543701171875,0.9222412109375,0.44300529214689227,-0.19354852603198766,1.3996337556449863
9,0.40005368100173655,bno085,-0.44140625,-0.04296875,9.71484375,0.115234375,-0.29296875,0.044921875,-0.01220703125,0.021484375,0.386474609375,0.9219970703125,0.7239683892219034,-0.7092695334960665,1.5239683598960307
10,0.440053408001404,bno085,-0.515625,-0.078125,9.7109375,0.025390625,-0.0703125,0.09375,-0.01239013671875,0.02197265625,0.38873291015625,0.9210205078125,0.7160162329328525,-0.653900370894512,1.8058201853552625
11,0.48005358000045817,bno085,-0.6328125,-0.15625,9.671875,-0.23046875,0.369140625,0.126953125,-0.0184326171875,0.0291748046875,0.39111328125,0.919677734375,0.39058200663443954,0.37230849628062235,2.1192975646182224
12,0.520053326001289,bno085,-0.86328125,-0.1171875,10.13671875,-0.154296875,0.486328125,0.32421875,-0.0184326171875,0.0291748046875,0.39111328125,0.919677734375,0.39058200663443954,0.37230849628062235,2.1192975646182224
13,0.5600542200008931,bno085,-1.28515625,-0.1953125,9.51953125,0.14453125,1.01171875,0.205078125,-0.024169921875,0.04437255859375,0.394287109375,0.9176025390625,0.4622869751144045,2.2282224805007838,2.5753930716197933
14,0.6000563170000532,bno085,-1.3203125,-0.38671875,9.01953125,0.14453125,1.01171875,0.205078125,-0.0302734375,0.06640625,0.39556884765625,0.91552734375,0.8216350987395871,4.824898706592377,2.862794764778023
15,0.6400534340009472,bno085,-1.20703125,0.07421875,9.09375,0.15625,-2.01171875,0.783203125,-0.010009765625,0.026611328125,0.412353515625,0.91058349609375,1.0743609110457861,-0.323993802464214,4.781272739942276
16,0.6800534200010588,bno085,-0.48046875,-0.078125,9.7109375,-0.189453125,-0.064453125,-0.06640625,-0.0054931640625,0.01177978515625,0.41217041015625,0.9110107421875,0.8473878841522732,-2.0852209559553216,4.708660780470289
17,0.7200537770004303,bno085,-0.25,-0.30859375,9.63671875,0.0078125,-0.458984375,0.2734375,-0.0054931640625,0.01177978515625,0.41217041015625,0.9110107421875,0.8473878841522732,-2.0852209559553216,4.708660780470289
18,0.7600537270009227,bno085,0.05859375,-0.15625,9.71484375,-0.109375,-0.306640625,0.09765625,-0.00103759765625,0.00262451171875,0.41571044921875,0.90948486328125,0.8545799990766434,-3.2580431798938285,5.1332862740896035
19,0.8000553060010134,bno085,0.05859375,-0.1171875,9.63671875,-0.109375,-0.306640625,0.09765625,-0.00018310546875,-0.00494384765625,0.4180908203125,0.90838623046875,0.5636441317700502,-4.091134575135211,5.42354946540862
20,0.840053533000173,bno085,0.05859375,-0.078125,9.71484375,-0.142578125,-0.330078125,0.0859375,6.103515625e-05,-0.0130615234375,0.41937255859375,0.90771484375,0.18822064289979712,-4.949310397696378,5.583711042355197
21,0.8800554830013425,bno085,0.2109375,-0.26953125,9.671875,-0.087890625,-0.400390625,0.021484375,0.0023193359375,-0.02252197265625,0.419677734375,0.90740966796875,-0.035213827376645246,-6.042573411818619,5.6274762596140695
22,0.9200565250012005,bno085,0.36328125,-0.34765625,9.7109375,-0.0546875,-0.560546875,0.08984375,0.0023193359375,-0.02252197265625,0.419677734375,0.90740966796875,-0.035213827376645246,-6.042573411818619,5.6274762596140695
23,0.9600565860000643,bno085,0.6328125,-0.1953125,9.67578125,0.01171875,-0.212890625,0.197265625,0.00665283203125,-0.0340576171875,0.42108154296875,0.9063720703125,-0.15794803078679895,-7.452444290570138,5.818487031319858
24,1.0000549610012968,bno085,0.671875,-0.34765625,9.671875,0.01171875,-0.212890625,0.197265625,0.008544921875,-0.03955078125,0.424072265625,0.90472412109375,-0.2667155159571047,-8.116852736898409,6.210463042875714
25,1.0400537250006892,bno085,0.74609375,-0.1953125,9.6328125,0.083984375,-0.095703125,0.060546875,0.01153564453125,-0.041015625,0.4259033203125,0.90380859375,-0.05131804528643365,-8.416306521942957,6.439340554998489
26,1.0800554900015413,bno085,0.671875,-0.00390625,9.671875,0.109375,-0.091796875,0.58984375,0.01397705078125,-0.04193115234375,0.43426513671875,0.89971923828125,0.04348193359143975,-8.638085216132001,7.504485276193089
27,1.1200551250003628,bno085,0.74609375,-0.26953125,9.671875,0.056640625,-0.087890625,0.21484375,0.01397705078125,-0.04193115234375,0.43426513671875,0.89971923828125,0.04348193359143975,-8.638085216132001,7.504485276193089
28,1.160053407000305,bno085,0.82421875,-0.234375,9.6328125,0.013671875,-0.111328125,-0.130859375,0.015869140625,-0.04315185546875,0.441650390625,0.89599609375,0.07484444653961679,-8.864739360389272,8.452305376633497
29,1.200056116000269,bno085,0.8984375,-0.04296875,9.63671875,0.013671875,-0.111328125,-0.130859375,0.01751708984375,-0.0450439453125,0.43927001953125,0.89703369140625,0.1825639121309032,-9.14082432238973,8.145619671722272
30,1.240055084001142,bno085,0.82421875,-0.42578125,9.6328125,-0.00390625,-0.169921875,-0.25390625,0.01934814453125,-0.04827880859375,0.43450927734375,0.899169921875,0.2780114974036547,-9.561990761622805,7.538088590018574
31,1.280055015000471,bno085,0.86328125,-0.234375,9.63671875,-0.00390625,-0.078125,-0.1328125,0.02020263671875,-0.049560546875,0.4307861328125,0.90087890625,0.3579679582252929,-9.732899656064882,7.0603980685671806
32,1.32005420600035,bno085,0.78515625,-0.1953125,9.6328125,0.0078125,-0.06640625,-0.1484375,0.02020263671875,-0.049560546875,0.4307861328125,0.90087890625,0.3579679582252929,-9.732899656064882,7.0603980685671806
33,1.3600542850017519,bno085,1.015625,-0.15625,9.6328125,0.037109375,-0.390625,-0.0078125,0.0213623046875,-0.05126953125,0.4273681640625,0.90234375,0.44526710826434196,-9.962584677922415,6.621351079332825
34,1.4000551230001292,bno085,1.08984375,-0.15625,9.5546875,0.037109375,-0.390625,-0.0078125,0.02386474609375,-0.05560302734375,0.42724609375,0.902099609375,0.4932989302217475,-10.535168696354578,6.613165119821649
35,1.440056055000241,bno085,1.08984375,-0.15625,9.63671875,0.021484375,-0.033203125,0.009765625,0.0252685546875,-0.0577392578125,0.4276123046875,0.9017333984375,0.5278170454595513,-10.826191183979097,6.662495500254711
36,1.480053338000289,bno085,1.20703125,-0.1171875,9.59765625,0.00390625,-0.072265625,0.009765625,0.0263671875,-0.0595703125,0.4278564453125,0.9014892578125,0.5474571248490857,-11.070827042130963,6.697851167712918
37,1.5200553060003585,bno085,1.20703125,-0.1171875,9.59765625,0.0,-0.06640625,0.0078125,0.0263671875,-0.0595703125,0.4278564453125,0.9014892578125,0.5474571248490857,-11.070827042130963,6.697851167712918
38,1.5600534960012737,bno085,1.24609375,-0.1171875,9.59765625,0.005859375,-0.056640625,0.01171875,0.02703857421875,-0.0609130859375,0.42803955078125,0.90130615234375,0.5476426834170253,-11.243635115900746,6.7251620318227445
39,1.60005542700128,bno085,1.24609375,-0.1171875,9.59765625,0.005859375,-0.056640625,0.01171875,0.02764892578125,-0.0621337890625,0.42803955078125,0.90118408203125,0.5504826372738161,-11.400198909541249,6.7275992341379816
40,1.6400533400010318,bno085,1.20703125,-0.15625,9.59765625,0.00390625,0.10546875,0.0078125,0.02685546875,-0.0604248046875,0.42816162109375,0.90130615234375,0.5508691847546804,-11.184300795895918,6.739959631519719
41,1.6800557890001073,bno085,1.20703125,-0.1171875,9.59765625,0.0,0.1015625,0.00390625,0.02569580078125,-0.05792236328125,0.42816162109375,0.9014892578125,0.5544773961538811,-10.867358905910285,6.733031894242203
42,1.7200545170016994,bno085,1.20703125,-0.1171875,9.59765625,-0.021484375,0.30859375,0.01171875,0.02569580078125,-0.05792236328125,0.42816162109375,0.9014892578125,0.5544773961538811,-10.867358905910285,6.733031894242203
43,1.7600547620004363,bno085,0.9765625,-0.1171875,9.63671875,-0.0234375,0.171875,-0.091796875,0.02252197265625,-0.05242919921875,0.4283447265625,0.90179443359375,0.49371762226685545,-10.141264522245223,6.746417014716052
44,1.8000543970010767,bno085,1.08984375,-0.234375,9.63671875,-0.0234375,0.171875,-0.091796875,0.01983642578125,-0.048095703125,0.42694091796875,0.90277099609375,0.4497347793180888,-9.557953570287793,6.560970051877351
45,1.8400533280000673,bno085,1.015625,-0.1171875,9.67578125,0.01953125,-0.05859375,0.013671875,0.0208740234375,-0.04974365234375,0.42681884765625,0.9027099609375,0.4782320927699973,-9.779623121067896,6.54687479081771
46,1.8800555930010887,bno085,1.08984375,-0.1171875,9.671875,0.015625,-0.388671875,0.0,0.02490234375,-0.05712890625,0.4266357421875,0.90228271484375,0.535721885205891,-10.743810916395873,6.536892383437962
47,1.9200566160016024,bno085,1.24609375,-0.1171875,9.59765625,0.01171875,-0.154296875,-0.005859375,0.0269775390625,-0.0609130859375,0.42645263671875,0.90203857421875,0.5677206452970371,-11.238140531252732,6.52016574261247
48,1.9600554550015659,bno085,1.24609375,-0.1171875,9.59765625,0.005859375,-0.072265625,0.0078125,0.0269775390625,-0.0609130859375,0.42645263671875,0.90203857421875,0.5677206452970371,-11.238140531252732,6.52016574261247
49,2.000054275000366,bno085,1.24609375,-0.1171875,9.59765625,0.005859375,-0.072265625,0.0078125,0.02789306640625,-0.0625,0.426513671875,0.90185546875,0.5835461936733474,-11.447822813258744,6.530610383020208
50,2.0400533360007103,bno085,1.24609375,-0.1171875,9.59765625,0.005859375,0.0234375,0.005859375,0.02777099609375,-0.06231689453125,0.42657470703125,0.90185546875,0.5788702521820077,-11.423023419194873,6.538611793723113
51,2.080054285001097,bno085,1.20703125,-0.1171875,9.59765625,0.005859375,0.05078125,0.009765625,0.02716064453125,-0.0611572265625,0.42669677734375,0.90191650390625,0.5706850181307996,-11.272988497901899,6.552349998012673
52,2.120055957000659,bno085,1.20703125,-0.1171875,9.59765625,-0.013671875,0.05859375,-0.00390625,0.02716064453125,-0.0611572265625,0.42669677734375,0.90191650390625,0.5706850181307996,-11.272988497901899,6.552349998012673
53,2.160053740000876,bno085,1.20703125,-0.1171875,9.59765625,-0.00390625,0.134765625,0.0390625,0.026123046875,-0.0595703125,0.42645263671875,0.90216064453125,0.5450713010423694,-11.056824996686922,6.51831923474069
54,2.200054764000015,bno085,0.9375,0.2265625,9.63671875,-0.00390625,0.134765625,0.0390625,0.02490234375,-0.0574951171875,0.427490234375,0.90185546875,0.503731141012546,-10.78304146724187,6.648836757271644
55,2.240055010001015,bno085,1.0546875,-0.078125,9.55859375,0.021484375,0.296875,0.35546875,0.021728515625,-0.0506591796875,0.436279296875,0.89813232421875,0.3783414616300069,-9.928963545418956,7.76586451640469
56,2.2800552370008518,bno085,1.20703125,-0.578125,9.63671875,-0.04296875,0.64453125,0.04296875,0.01361083984375,-0.0364990234375,0.43896484375,0.89764404296875,0.21669643430233101,-8.063151408457431,8.090072779211141
57,2.32005444600145,bno085,0.44140625,-0.1953125,9.71484375,-0.01953125,0.392578125,-0.0078125,0.01361083984375,-0.0364990234375,0.43896484375,0.89764404296875,0.21669643430233101,-8.063151408457431,8.090072779211141
58,2.360053192000123,bno085,0.36328125,-0.15625,9.71484375,0.015625,0.08984375,-0.01953125,0.00628662109375,-0.0233154296875,0.4384765625,0.8984375,0.13243281064455584,-6.33611697899029,8.017509726987367
59,2.4000543450001715,bno085,0.28515625,-0.15625,9.671875,0.015625,0.08984375,-0.01953125,0.004638671875,-0.01947021484375,0.43768310546875,0.89892578125,0.16454299494288094,-5.8564322666391515,7.913569626964952
60,2.4400548130015522,bno085,0.32421875,-0.15625,9.67578125,0.015625,-0.07421875,0.0,0.0054931640625,-0.0205078125,0.4373779296875,0.8990478515625,0.20386204650712367,-6.005946123712676,7.874081010168439
61,2.4800533190009446,bno085,0.44140625,-0.15625,9.67578125,0.029296875,-0.197265625,0.001953125,0.0078125,-0.02398681640625,0.4371337890625,0.8990478515625,0.27127557733719887,-6.480516481337062,7.8422582002588825
62,2.520053287000337,bno085,0.48046875,-0.1171875,9.67578125,0.01953125,-0.189453125,0.015625,0.0078125,-0.02398681640625,0.4371337890625,0.8990478515625,0.27127557733719887,-6.480516481337062,7.8422582002588825
63,2.5600537360005546,bno085,0.5546875,-0.1171875,9.67578125,0.046875,-0.36328125,0.04296875,0.010498046875,-0.02813720703125,0.4373779296875,0.8988037109375,0.33717680300169584,-7.043455124389987,7.875021799222398
64,2.600055056000201,bno085,0.70703125,-0.1171875,9.63671875,0.046875,-0.36328125,0.04296875,0.0140380859375,-0.0343017578125,0.43768310546875,0.89837646484375,0.38868833961379046,-7.85694540543242,7.917771134891879
65,2.640053302000524,bno085,0.78515625,-0.1171875,9.63671875,-0.00390625,-0.1796875,0.009765625,0.0159912109375,-0.03826904296875,0.43768310546875,0.898193359375,0.3903879235498554,-8.364196966749054,7.923060382252561
66,2.6800532700017357,bno085,0.82421875,-0.1171875,9.6328125,0.005859375,-0.041015625,0.01171875,0.01641845703125,-0.039306640625,0.43768310546875,0.89813232421875,0.38214875864689035,-8.49260369823513,7.924610382055808
67,2.7200537390017416,bno085,0.82421875,-0.1171875,9.6328125,-0.009765625,0.068359375,0.013671875,0.01580810546875,-0.0384521484375,0.437744140625,0.89813232421875,0.36134470016693054,-8.37376561757679,7.93140248328261
68,2.7600536510017264,bno085,0.78515625,-0.1171875,9.63671875,-0.0078125,0.015625,0.01953125,0.01580810546875,-0.0384521484375,0.437744140625,0.89813232421875,0.36134470016693054,-8.37376561757679,7.93140248328261
69,2.8000552310004423,bno085,0.82421875,-0.1171875,9.6328125,-0.0078125,0.015625,0.01953125,0.01495361328125,-0.037353515625,0.4376220703125,0.89825439453125,0.3300719988164891,-8.217436026577563,7.915395184278554
70,2.840053291000004,bno085,0.78515625,-0.1171875,9.671875,-0.021484375,0.193359375,0.01171875,0.012939453125,-0.0341796875,0.43768310546875,0.89837646484375,0.2812017534181137,-7.789070792093738,7.920601376764927
71,2.8800567960006447,bno085,0.74609375,-0.15625,9.63671875,-0.013671875,0.09375,0.01953125,0.01190185546875,-0.03265380859375,0.43780517578125,0.8984375,0.24937827691377337,-7.580109681037953,7.937029020972566
72,2.9200540050005657,bno085,0.70703125,-0.1171875,9.71484375,0.001953125,-0.125,0.001953125,0.01190185546875,-0.03265380859375,0.43780517578125,0.8984375,0.24937827691377337,-7.580109681037953,7.937029020972566
73,2.9600551030016504,bno085,0.74609375,-0.15625,9.671875,0.01953125,-0.142578125,-0.044921875,0.0120849609375,-0.032958984375,0.43756103515625,0.89849853515625,0.2559856859618212,-7.620225988246048,7.9045082057003375
74,3.0000552750007046,bno085,0.70703125,-0.1171875,9.63671875,-0.01953125,0.34765625,-0.0546875,0.0133056640625,-0.03466796875,0.4366455078125,0.89886474609375,0.3077696084705205,-7.8567343023911524,7.787609320020608
75,3.0400558360015566,bno085,0.6328125,-0.1171875,9.671875,-0.01953125,0.34765625,-0.0546875,0.00970458984375,-0.02783203125,0.4354248046875,0.89971923828125,0.29366531185710215,-6.969824497185004,7.624589676200384
76,3.080055397000251,bno085,0.515625,-0.1171875,9.67578125,-0.021484375,0.412109375,-0.01171875,0.00445556640625,-0.01873779296875,0.434814453125,0.90032958984375,0.2125077795332903,-5.768963117627866,7.5457785553769385
77,3.1200551240017376,bno085,0.36328125,-0.1171875,9.671875,-0.09765625,0.662109375,-0.05078125,0.00445556640625,-0.01873779296875,0.434814453125,0.90032958984375,0.2125077795332903,-5.768963117627866,7.5457785553769385
78,3.160055887999988,bno085,0.171875,-0.1953125,9.59765625,0.11328125,0.62109375,-0.0625,-0.0040283203125,-0.00518798828125,0.43359375,0.901123046875,0.021962499597993467,-3.9469683497106205,7.396651071882101
79,3.200054116001411,bno085,-0.44140625,-0.15625,9.7109375,0.11328125,0.62109375,-0.0625,-0.0093994140625,0.0098876953125,0.43170166015625,0.90191650390625,0.22755478030156848,-2.121372785497378,7.1728166951454835
80,3.240054677000444,bno085,-0.515625,-0.1171875,9.67578125,0.080078125,0.291015625,-0.037109375,-0.01123046875,0.01837158203125,0.4306640625,0.90228271484375,0.4626702433814185,-1.1525518924907965,7.062251429648083
81,3.2800533490008092,bno085,-0.59375,-0.078125,9.59765625,0.013671875,0.017578125,-0.00390625,-0.0113525390625,0.01971435546875,0.4302978515625,0.90240478515625,0.5181332124832805,-1.0071467717119582,7.01923938744949
82,3.32005300200035,bno085,-0.515625,-0.15625,9.67578125,-0.00390625,-0.177734375,0.0625,-0.0113525390625,0.01971435546875,0.4302978515625,0.90240478515625,0.5181332124832805,-1.0071467717119582,7.01923938744949
83,3.3600537850015826,bno085,-0.48046875,-0.1171875,9.67578125,-0.0078125,-0.140625,0.072265625,-0.009765625,0.01617431640625,0.43157958984375,0.90191650390625,0.5007180515332388,-1.4533650116795618,7.173723931100426
84,3.40005327200015,bno085,-0.515625,-0.078125,9.67578125,-0.0078125,-0.140625,0.072265625,-0.00836181640625,0.01263427734375,0.43328857421875,0.901123046875,0.4607416653730721,-1.890892597787745,7.3810788506221625
85,3.4400533700008964,bno085,-0.48046875,-0.1171875,9.67578125,-0.025390625,-0.095703125,0.033203125,-0.00775146484375,0.0096435546875,0.43426513671875,0.90069580078125,0.3692153425100451,-2.231201470864488,7.498808856085316
86,3.480053097000564,bno085,-0.36328125,-0.1171875,9.671875,-0.025390625,-0.025390625,0.01171875,-0.0078125,0.00823974609375,0.434814453125,0.90045166015625,0.28951204405594416,-2.373666271878267,7.56618281492555
87,3.52005310200002,bno085,-0.36328125,-0.15625,9.63671875,0.0,-0.03125,0.03125,-0.0078125,0.00823974609375,0.434814453125,0.90045166015625,0.28951204405594416,-2.373666271878267,7.56618281492555
88,3.5600533110009565,bno085,-0.171875,0.45703125,9.67578125,0.001953125,0.0234375,0.916015625,-0.0076904296875,0.00775146484375,0.43560791015625,0.90008544921875,0.2724623725551032,-2.430999718409664,7.666756413299322
89,3.600054946000455,bno085,-0.44140625,0.41796875,9.67578125,0.001953125,0.0234375,0.916015625,-0.007568359375,0.008544921875,0.452880859375,0.8914794921875,0.20912362081021663,-2.3720756560304745,9.878319689871939
90,3.640053285000249,bno085,-0.59375,-0.15625,9.671875,0.013671875,0.0703125,1.181640625,-0.00775146484375,0.010009765625,0.479248046875,0.8775634765625,0.09118621932687133,-2.2310507356672122,13.29837969868621
91,3.680053901000065,bno085,-0.171875,0.3046875,9.671875,-0.001953125,0.01953125,0.845703125,-0.008056640625,0.0107421875,0.49700927734375,0.86761474609375,-0.01766339314224687,-2.1464747283018544,15.632970880413504
92,3.720055999001488,bno085,-0.44140625,0.15234375,9.67578125,0.009765625,0.017578125,0.4296875,-0.0081787109375,0.01123046875,0.50726318359375,0.8616943359375,-0.0705339357177276,-2.09213608168855,16.99443550510491
93,3.7600549860017054,bno085,-0.40234375,-0.234375,9.63671875,0.00390625,0.015625,0.244140625,-0.0081787109375,0.01123046875,0.50726318359375,0.8616943359375,-0.0705339357177276,-2.09213608168855,16.99443550510491
94,3.8000551580007595,bno085,-0.48046875,-0.80859375,9.67578125,0.00390625,0.015625,0.244140625,-0.00823974609375,0.01171875,0.51348876953125,0.85797119140625,-0.08955776938891288,-2.040242048907048,17.82464866052404
95,3.840055274000406,bno085,-0.36328125,-0.1953125,9.7109375,-0.0078125,-0.0078125,0.2734375,-0.0081787109375,0.011474609375,0.51885986328125,0.854736328125,-0.133941418825952,-2.0671622416467743,18.543323157198785
96,3.8800563530003274,bno085,-0.5546875,-0.5390625,9.67578125,-0.021484375,-0.0546875,0.61328125,-0.00787353515625,0.0107421875,0.5306396484375,0.84747314453125,-0.22825789679293806,-2.153520514161819,20.12897640762804
97,3.9200567470015812,bno085,-0.671875,-0.65234375,9.67578125,-0.009765625,-0.013671875,0.24609375,-0.00762939453125,0.0101318359375,0.53680419921875,0.8436279296875,-0.28476148509085203,-2.2247720152598847,20.96530994296958
98,3.960058790000403,bno085,-0.36328125,-0.15625,9.671875,0.001953125,-0.00390625,-0.00390625,-0.00762939453125,0.0101318359375,0.53680419921875,0.8436279296875,-0.28476148509085203,-2.2247720152598847,20.96530994296958
99,4.000056943001255,bno085,0.05859375,0.83984375,9.63671875,0.0,-0.021484375,0.1484375,-0.007568359375,0.0098876953125,0.536865234375,0.84356689453125,-0.2942270063344006,-2.2520396029138845,20.972720667841415
100,4.0400569299999916,bno085,-0.05859375,0.2265625,9.671875,0.0,-0.021484375,0.1484375,-0.00726318359375,0.00933837890625,0.53741455078125,0.84326171875,-0.3025035143956335,-2.323704817449781,21.04802628549744
101,4.080056620001415,bno085,-0.5546875,-0.38671875,9.671875,0.005859375,-0.01171875,-0.11328125,-0.00701904296875,0.00897216796875,0.53387451171875,0.845458984375,-0.27594022342294916,-2.3758832741931437,20.565672093580712
102,4.120055737001167,bno085,-0.36328125,-0.34765625,9.67578125,-0.001953125,-0.046875,-0.15234375,-0.006591796875,0.00811767578125,0.53106689453125,0.8472900390625,-0.2664854031407787,-2.4863131582572477,20.186175668355673
103,4.160056334001638,bno085,-0.515625,-0.6171875,9.7109375,-0.005859375,-0.13671875,0.0,-0.006591796875,0.00811767578125,0.53106689453125,0.8472900390625,-0.2664854031407787,-2.4863131582572477,20.186175668355673
104,4.200059025000883,bno085,-0.171875,-0.1171875,9.67578125,0.01171875,-0.3359375,-0.001953125,-0.00531005859375,0.00555419921875,0.5301513671875,0.84783935546875,-0.2908315590774775,-2.8135380491923545,20.059892645411708
105,4.240058178000254,bno085,0.05859375,-0.078125,9.671875,0.01171875,-0.3359375,-0.001953125,-0.00140380859375,-0.000732421875,0.53009033203125,0.84796142578125,-0.2928417009970496,-3.66186688871036,20.053938008468553
106,4.280055795001317,bno085,0.2109375,-0.078125,9.671875,0.005859375,-0.322265625,0.0078125,0.0030517578125,-0.007568359375,0.5301513671875,0.84783935546875,-0.2760678977665773,-4.596529423906393,20.06645786296668
107,4.320055374000731,bno085,0.32421875,-0.078125,9.6328125,0.01953125,-0.177734375,0.0078125,0.00677490234375,-0.0126953125,0.5303955078125,0.84759521484375,-0.22895987373936028,-5.320737601863204,20.106168100152917
108,4.360055713001202,bno085,0.36328125,-0.078125,9.63671875,0.025390625,-0.103515625,0.009765625,0.00677490234375,-0.0126953125,0.5303955078125,0.84759521484375,-0.22895987373936028,-5.320737601863204,20.106168100152917
109,4.400057940001716,bno085,0.40234375,-0.078125,9.671875,0.005859375,0.03515625,0.005859375,0.00823974609375,-0.01397705078125,0.53076171875,0.84735107421875,-0.16872317126199313,-5.534274276143849,20.158011753934222
110,4.440054705000875,bno085,0.36328125,-0.04296875,9.67578125,0.005859375,0.03515625,0.005859375,0.0081787109375,-0.01361083984375,0.53094482421875,0.84722900390625,-0.15428579104289275,-5.494866273988079,20.181752448178855
111,4.480055229001664,bno085,0.36328125,-0.078125,9.671875,-0.01953125,0.166015625,0.013671875,0.0062255859375,-0.01123046875,0.53125,0.84710693359375,-0.20201797419207912,-5.144831444264403,20.22025068059861
112,4.520058845000676,bno085,0.36328125,-0.078125,9.63671875,-0.015625,0.123046875,0.009765625,0.00457763671875,-0.0091552734375,0.531494140625,0.84698486328125,-0.2379031932747652,-4.84290609388323,20.25059322803494
113,4.560059221001211,bno085,0.25,-0.078125,9.71484375,0.00390625,0.189453125,-0.001953125,0.00457763671875,-0.0091552734375,0.531494140625,0.84698486328125,-0.2379031932747652,-4.84290609388323,20.25059322803494
114,4.6000588740007515,bno085,0.171875,-0.078125,9.67578125,0.009765625,0.216796875,0.00390625,0.001708984375,-0.0045166015625,0.53155517578125,0.84698486328125,-0.23399881471644035,-4.217871278288777,20.25367296681314
115,4.6400553610001225,bno085,0.01953125,-0.078125,9.671875,0.009765625,0.216796875,0.00390625,-0.0010986328125,0.00030517578125,0.53179931640625,0.84686279296875,-0.2147382098034119,-3.578825829208599,20.284470855567708
116,4.680056292001609,bno085,-0.05859375,-0.078125,9.671875,0.001953125,0.15625,0.001953125,-0.0030517578125,0.003662109375,0.53204345703125,0.8466796875,-0.2016064099789326,-3.1338856048701778,20.316619860737877
117,4.720057964001171,bno085,-0.1328125,-0.078125,9.671875,0.0078125,0.140625,-0.005859375,-0.00494384765625,0.00665283203125,0.53204345703125,0.8466796875,-0.2029426262895449,-2.7284190255928,20.31781396618643
118,4.760057080000479,bno085,-0.1328125,-0.078125,9.671875,-0.001953125,0.015625,-0.00390625,-0.00494384765625,0.00665283203125,0.53204345703125,0.8466796875,-0.2029426262895449,-2.7284190255928,20.31781396618643
119,4.800056956000844,bno085,-0.09765625,-0.078125,9.6328125,0.005859375,0.025390625,-0.009765625,-0.00537109375,0.0072021484375,0.53216552734375,0.84661865234375,-0.21188253292863654,-2.649079302541082,20.335086962428722
120,4.84005585000159,bno085,-0.09765625,-0.1171875,9.67578125,0.005859375,0.025390625,-0.009765625,-0.005615234375,0.00775146484375,0.53216552734375,0.84661865234375,-0.20210241174665033,-2.580908841125221,20.33554014575898
121,4.880057374000899,bno085,-0.09765625,-0.078125,9.6328125,0.0078125,0.015625,0.0,-0.0057373046875,0.00799560546875,0.53216552734375,0.8465576171875,-0.19892115630154328,-2.5496286923363343,20.334134701919215
122,4.920060453001497,bno085,-0.09765625,-0.078125,9.67578125,-0.005859375,0.00390625,-0.001953125,-0.00592041015625,0.00799560546875,0.5322265625,0.8465576171875,-0.21722612862758375,-2.5385375981208322,20.343320971356768
123,4.960058848000699,bno085,-0.09765625,-0.1171875,9.67578125,-0.005859375,0.009765625,-0.009765625,-0.00592041015625,0.00799560546875,0.5322265625,0.8465576171875,-0.21722612862758375,-2.5385375981208322,20.343320971356768
124,5.000058057001297,bno085,-0.09765625,-0.078125,9.67578125,-0.001953125,-0.009765625,-0.013671875,-0.00616455078125,0.00811767578125,0.53216552734375,0.8465576171875,-0.23292796990756645,-2.511739868838084,20.33404456812664
125,5.040055877001578,bno085,-0.09765625,-0.1171875,9.67578125,-0.001953125,-0.009765625,-0.013671875,-0.00616455078125,0.00787353515625,0.5321044921875,0.84661865234375,-0.24740852048470324,-2.5355060642380014,20.326101076957887
126,5.080059308000273,bno085,-0.05859375,-0.1171875,9.671875,-0.001953125,-0.0078125,-0.0078125,-0.00628662109375,0.0076904296875,0.53192138671875,0.84674072265625,-0.2690745804981004,-2.5459309964281376,20.301221253869038
127,5.120058128000892,bno085,-0.09765625,-0.1171875,9.67578125,0.005859375,-0.001953125,-0.009765625,-0.00616455078125,0.00762939453125,0.53192138671875,0.84674072265625,-0.26094744386196606,-2.5592913399530732,20.30121998699576
128,5.160058485000263,bno085,-0.05859375,-0.1171875,9.671875,-0.001953125,-0.005859375,-0.00390625,-0.00616455078125,0.00762939453125,0.53192138671875,0.84674072265625,-0.26094744386196606,-2.5592913399530732,20.30121998699576
129,5.20005856500029,bno085,-0.05859375,-0.1171875,9.671875,0.00390625,-0.0078125,0.00390625,-0.00592041015625,0.00732421875,0.53216552734375,0.84661865234375,-0.2577325787654045,-2.603747571252365,20.334934464152244
130,5.24005931100146,bno085,-0.05859375,-0.078125,9.671875,0.00390625,-0.0078125,0.00390625,-0.00579833984375,0.00701904296875,0.532470703125,0.846435546875,-0.2667825942718726,-2.640673568412701,20.376283293860705
131,5.280070057000557,bno085,-0.05859375,-0.078125,9.671875,0.001953125,0.001953125,-0.00390625,-0.0057373046875,0.0069580078125,0.53253173828125,0.84637451171875,-0.2649839406111574,-2.6502272694534987,20.383929208992217
132,5.32005948799997,bno085,-0.09765625,-0.078125,9.67578125,-0.00390625,0.01953125,0.0,-0.00592041015625,0.00714111328125,0.5328369140625,0.84619140625,-0.2738724800501643,-2.621176370073523,20.425611791293562
133,5.360058290001689,bno085,-0.09765625,-0.078125,9.67578125,0.001953125,0.029296875,0.0,-0.00592041015625,0.00714111328125,0.5328369140625,0.84619140625,-0.2738724800501643,-2.621176370073523,20.425611791293562
134,5.400057906001166,bno085,-0.1328125,-0.078125,9.63671875,-0.001953125,0.025390625,0.0078125,-0.0062255859375,0.00750732421875,0.53302001953125,0.8460693359375,-0.2824584287572981,-2.5669332030090373,20.450459905109383
135,5.440063800000644,bno085,-0.1328125,-0.078125,9.671875,-0.001953125,0.025390625,0.0078125,-0.00653076171875,0.00787353515625,0.53326416015625,0.84588623046875,-0.2914109110033911,-2.5125980082060013,20.483007426849863
136,5.480059602001347,bno085,-0.1328125,-0.078125,9.671875,0.00390625,0.037109375,-0.001953125,-0.0069580078125,0.00848388671875,0.5333251953125,0.8458251953125,-0.29594888057973595,-2.4272527661247554,20.49113638396091
137,5.520061552000698,bno085,-0.1328125,-0.078125,9.671875,0.00390625,0.01953125,0.0,-0.00732421875,0.00897216796875,0.533447265625,0.84576416015625,-0.30255104286374096,-2.357530667586901,20.508487995176
138,5.560058261000449,bno085,-0.171875,-0.078125,9.67578125,0.005859375,0.005859375,0.0,-0.00732421875,0.00897216796875,0.533447265625,0.84576416015625,-0.30255104286374096,-2.357530667586901,20.508487995176
139,5.600058803000138,bno085,-0.1328125,-0.078125,9.671875,-0.015625,0.015625,-0.00390625,-0.00738525390625,0.00927734375,0.53369140625,0.8455810546875,-0.29149004387908084,-2.324031465386478,20.541182191312554
140,5.640058068000144,bno085,-0.171875,-0.078125,9.67578125,-0.015625,0.015625,-0.00390625,-0.00750732421875,0.00933837890625,0.5338134765625,0.84552001953125,-0.3004974195045737,-2.3106287085404067,20.558163946400207
141,5.680058129000827,bno085,-0.171875,-0.078125,9.67578125,0.0,-0.01171875,-0.0078125,-0.00738525390625,0.0091552734375,0.53375244140625,0.84552001953125,-0.29931958727019187,-2.335772198490118,20.548707730311257
142,5.720057282000198,bno085,-0.09765625,-0.078125,9.67578125,-0.0078125,0.005859375,0.0703125,-0.0074462890625,0.009033203125,0.53662109375,0.84375,-0.3332602349681836,-2.342354882486382,20.939218895470155
143,5.760056862000056,bno085,-0.25,-0.234375,9.671875,0.0,-0.0234375,0.083984375,-0.0074462890625,0.009033203125,0.53662109375,0.84375,-0.3332602349681836,-2.342354882486382,20.939218895470155
144,5.8000582000004215,bno085,-0.2109375,-0.04296875,9.67578125,-0.001953125,-0.01953125,0.001953125,-0.0072021484375,0.00848388671875,0.54095458984375,0.8409423828125,-0.37459684261079523,-2.4075674464334686,21.527748693525645
145,5.840057613000681,bno085,-0.171875,-0.078125,9.67578125,-0.001953125,-0.01953125,0.001953125,-0.00714111328125,0.00823974609375,0.54107666015625,0.84088134765625,-0.3847662319279744,-2.4348335118748485,21.54462603473176
146,5.880059044000518,bno085,-0.2109375,-0.078125,9.671875,-0.001953125,-0.01171875,-0.00390625,-0.007080078125,0.00799560546875,0.541015625,0.8409423828125,-0.3936192114426727,-2.4622397511377954,21.536653471800342
147,5.920057383000312,bno085,-0.2109375,-0.078125,9.671875,-0.001953125,-0.02734375,0.0,-0.0068359375,0.00738525390625,0.5411376953125,0.84088134765625,-0.4088435137100774,-2.5361393270398276,21.553331843410803
148,5.960059314000318,bno085,-0.05859375,0.11328125,9.63671875,-0.00390625,-0.03515625,0.19921875,-0.0068359375,0.00738525390625,0.5411376953125,0.84088134765625,-0.4088435137100774,-2.5361393270398276,21.553331843410803
149,6.000056986000345,bno085,0.36328125,0.6875,9.671875,-0.0078125,-0.04296875,0.537109375,-0.0064697265625,0.006591796875,0.5455322265625,0.8380126953125,-0.4556727760367223,-2.6317328964786215,22.152744735834197
150,6.040058305999992,bno085,0.28515625,-0.00390625,9.7109375,-0.0078125,-0.04296875,0.537109375,-0.00579833984375,0.00555419921875,0.556884765625,0.83050537109375,-0.5436039458942346,-2.7624616370110817,23.71332887913644
151,6.0800580520008225,bno085,0.59375,-0.00390625,9.67578125,0.005859375,-0.11328125,0.458984375,-0.0040283203125,0.0032958984375,0.5657958984375,0.82452392578125,-0.5920755916999003,-3.0803448574835794,24.951189617420688
152,6.120057706000807,bno085,-0.09765625,-0.078125,9.7109375,0.01953125,-0.16796875,0.3203125,-0.00115966796875,-6.103515625e-05,0.5721435546875,0.82012939453125,-0.5947115656611471,-3.575562946314932,25.84048688575668
153,6.160057859000517,bno085,-0.05859375,-0.04296875,9.67578125,0.01171875,-0.1484375,0.330078125,-0.00115966796875,-6.103515625e-05,0.5721435546875,0.82012939453125,-0.5947115656611471,-3.575562946314932,25.84048688575668
154,6.200056846000734,bno085,0.05859375,-0.76953125,9.75390625,0.017578125,-0.33203125,-1.490234375,0.00177001953125,-0.0035400390625,0.57696533203125,0.8167724609375,-0.5935374047004641,-4.088395656167784,26.523371070067626
155,6.240057481001713,bno085,-0.32421875,-0.234375,9.7109375,0.017578125,-0.33203125,-1.490234375,0.00634765625,-0.00897216796875,0.5552978515625,0.83160400390625,-0.29940776579597145,-4.921616640610448,23.511921802961254
156,6.280056987001444,bno085,0.32421875,-0.078125,9.67578125,0.01953125,-0.408203125,-1.314453125,0.01409912109375,-0.01837158203125,0.52734375,0.849365234375,0.17304241852425764,-6.317658929105898,19.699721226046396
157,6.320057436001662,bno085,0.70703125,-0.078125,9.63671875,-0.005859375,-0.150390625,-0.513671875,0.01727294921875,-0.02252197265625,0.51177978515625,0.858642578125,0.42457388247378774,-6.908007575707861,17.60419982077369
158,6.360057220001181,bno085,0.78515625,-0.04296875,9.67578125,-0.05078125,0.068359375,-1.16015625,0.01727294921875,-0.02252197265625,0.51177978515625,0.858642578125,0.42457388247378774,-6.908007575707861,17.60419982077369
159,6.400057262000701,bno085,1.24609375,0.76171875,9.63671875,-0.00390625,-0.53125,-0.798828125,0.0162353515625,-0.0218505859375,0.48834228515625,0.8721923828125,0.6461702189930779,-6.763246151574772,14.480792695235598
160,6.44005728600132,bno085,-0.2890625,-1.23046875,9.67578125,-0.00390625,-0.53125,-0.798828125,0.01934814453125,-0.02728271484375,0.47137451171875,0.88128662109375,0.8698135795789503,-7.460308735332667,12.253531980760847
161,6.480057088001558,bno085,-0.36328125,-0.5,9.75390625,-0.029296875,0.244140625,-0.40234375,0.015869140625,-0.0216064453125,0.46356201171875,0.8856201171875,0.9168480219205697,-6.686753637779968,11.230651177776371
162,6.520056519000718,bno085,0.74609375,0.5703125,9.671875,-0.005859375,0.12890625,-0.13671875,0.01483154296875,-0.02008056640625,0.46142578125,0.8868408203125,0.9169991676199056,-6.4736092720876375,10.954699471037376
163,6.560057117001634,bno085,0.59375,0.45703125,9.671875,0.00390625,-0.1796875,-0.34375,0.01483154296875,-0.02008056640625,0.46142578125,0.8868408203125,0.9169991676199056,-6.4736092720876375,10.954699471037376
164,6.600057733001449,bno085,-0.2109375,-0.69140625,9.7109375,-0.017578125,0.109375,-0.3515625,0.01666259765625,-0.02294921875,0.4573974609375,0.8887939453125,0.9995091972166886,-6.855434385294863,10.430266512237884
165,6.640058350001709,bno085,0.28515625,-0.00390625,9.7109375,-0.017578125,0.109375,-0.3515625,0.01531982421875,-0.02081298828125,0.45147705078125,0.89190673828125,1.042688463380966,-6.557104973719855,9.664717590630346
166,6.680057596000552,bno085,0.48046875,0.15234375,9.6328125,-0.005859375,-0.009765625,-0.203125,0.01531982421875,-0.02093505859375,0.447998046875,0.8936767578125,1.0763068219213405,-6.563376319727158,9.216336075729338
167,6.720057490001636,bno085,0.32421875,-0.15625,9.67578125,-0.005859375,0.056640625,-0.021484375,0.01495361328125,-0.02032470703125,0.4476318359375,0.89385986328125,1.0742280000832156,-6.481228084768793,9.168767765829717
168,6.760058292000394,bno085,0.32421875,-0.1953125,9.671875,-0.001953125,0.13671875,0.0625,0.01495361328125,-0.02032470703125,0.4476318359375,0.89385986328125,1.0742280000832156,-6.481228084768793,9.168767765829717
169,6.800058149001416,bno085,0.44140625,0.07421875,9.671875,0.001953125,0.07421875,0.142578125,0.01361083984375,-0.01788330078125,0.4493408203125,0.89306640625,1.042855642505638,-6.165143442485821,9.389921652030576
170,6.840055340000617,bno085,0.5546875,0.1875,9.7109375,0.001953125,0.07421875,0.142578125,0.01263427734375,-0.01611328125,0.45257568359375,0.8914794921875,0.9990429415566682,-5.9393016141573405,9.80834200634462
171,6.880056567000793,bno085,0.28515625,-0.15625,9.671875,0.00390625,-0.0703125,0.06640625,0.01312255859375,-0.0167236328125,0.4549560546875,0.8902587890625,0.9914237921811125,-6.031169855325597,10.115759681155053
172,6.920057721001285,bno085,0.671875,-0.1171875,9.67578125,-0.021484375,-0.001953125,-0.650390625,0.01318359375,-0.0169677734375,0.44500732421875,0.895263671875,1.0932842098444093,-6.041385656203522,8.832272151671974
173,6.960058430000572,bno085,0.32421875,-0.00390625,9.71484375,-0.025390625,-0.2109375,-0.625,0.01318359375,-0.0169677734375,0.44500732421875,0.895263671875,1.0932842098444093,-6.041385656203522,8.832272151671974
174,7.000057491000916,bno085,0.44140625,0.07421875,9.63671875,0.001953125,-0.04296875,-0.009765625,0.01470947265625,-0.02069091796875,0.431396484375,0.90179443359375,1.2140079114682147,-6.474165566266973,7.085583066977856
175,7.04006494100031,bno085,0.44140625,0.07421875,9.671875,0.001953125,-0.04296875,-0.009765625,0.01556396484375,-0.02252197265625,0.4306640625,0.902099609375,1.2204219275295167,-6.704294995326843,6.991414759131648
176,7.0800578170001245,bno085,0.36328125,0.15234375,9.671875,0.0078125,-0.05078125,0.099609375,0.0159912109375,-0.02325439453125,0.433837890625,0.90057373046875,1.1917077013883097,-6.808046920936675,7.397527867334852
177,7.120058322001569,bno085,0.6328125,-0.00390625,9.67578125,0.001953125,-0.076171875,0.197265625,0.01666259765625,-0.0250244140625,0.43829345703125,0.8983154296875,1.1200797106463443,-7.033109739667609,7.9676704105146365
178,7.160057624001638,bno085,0.515625,0.03515625,9.7109375,0.025390625,-0.177734375,-0.083984375,0.01666259765625,-0.0250244140625,0.43829345703125,0.8983154296875,1.1200797106463443,-7.033109739667609,7.9676704105146365
179,7.200057629001094,bno085,0.5546875,0.07421875,9.78125,-0.013671875,-0.50390625,-0.0703125,0.0185546875,-0.0279541015625,0.43701171875,0.89886474609375,1.1840264915582512,-7.427788327337198,7.802969564095973
180,7.240058579000106,bno085,0.78515625,0.03515625,9.71484375,-0.013671875,-0.50390625,-0.0703125,0.02349853515625,-0.03790283203125,0.43499755859375,0.8992919921875,1.2233979313389778,-8.697281589505058,7.544517083934533
181,7.280058695001571,bno085,1.015625,0.15234375,9.59375,-0.013671875,-0.279296875,-0.119140625,0.0272216796875,-0.04638671875,0.431884765625,0.90032958984375,1.230817485056863,-9.753508624043189,7.154200044307701
182,7.320059923000372,bno085,1.08984375,0.11328125,9.59765625,0.00390625,-0.10546875,0.095703125,0.0284423828125,-0.04913330078125,0.43341064453125,0.8994140625,1.197224992886246,-10.101680961700316,7.35481716987031
183,7.360058595000737,bno085,1.015625,0.15234375,9.67578125,0.03125,-0.28515625,0.376953125,0.0284423828125,-0.04913330078125,0.43341064453125,0.8994140625,1.197224992886246,-10.101680961700316,7.35481716987031
184,7.400057230001039,bno085,1.28125,0.11328125,9.6328125,0.076171875,-0.9296875,0.798828125,0.03179931640625,-0.0557861328125,0.44073486328125,0.89532470703125,1.091926219016927,-10.971970445192344,8.312888953239224
185,7.44005756900151,bno085,1.62890625,-0.00390625,9.55859375,0.076171875,-0.9296875,0.798828125,0.0421142578125,-0.07550048828125,0.4560546875,0.8857421875,0.8485269581098623,-13.556395961410443,10.37935538216392
186,7.480057796999972,bno085,1.859375,-0.234375,9.3671875,0.1328125,-1.044921875,0.8359375,0.05450439453125,-0.09674072265625,0.47406005859375,0.87347412109375,0.5607623510120899,-16.410344644910307,12.895110754065364
187,7.520057635001649,bno085,2.35546875,-0.078125,9.59765625,0.10546875,-1.09765625,0.634765625,0.06884765625,-0.12091064453125,0.48907470703125,0.861083984375,0.22833483447460773,-19.668242193881795,15.151663187160077
188,7.560058678000132,bno085,2.546875,-0.1953125,8.90625,0.201171875,-2.00390625,0.95703125,0.06884765625,-0.12091064453125,0.48907470703125,0.861083984375,0.22833483447460773,-19.668242193881795,15.151663187160077
189,7.600058424000963,bno085,3.19921875,-0.34765625,8.75,0.00390625,-0.40234375,0.251953125,0.0947265625,-0.163818359375,0.50537109375,0.8419189453125,-0.3565032212373261,-25.49113013638794,18.04305672453466
190,7.640057800001159,bno085,3.734375,-0.5,8.98828125,0.00390625,-0.40234375,0.251953125,0.10272216796875,-0.1771240234375,0.51434326171875,0.832763671875,-0.7865233904911709,-27.296992946751274,19.611359480670398
191,7.680057750001652,bno085,3.8125,-0.1953125,8.79296875,-0.513671875,0.005859375,-1.068359375,0.09747314453125,-0.179443359375,0.4959716796875,0.843994140625,-0.7532433375189074,-27.229032819886296,17.04615055652968
192,7.72005757000079,bno085,4.73046875,0.07421875,8.79296875,-0.373046875,0.71484375,-0.845703125,0.0865478515625,-0.16986083984375,0.47845458984375,0.857177734375,-0.6070728811893993,-25.63317464865148,14.427326475964794
193,7.760059094000098,bno085,4.078125,0.2265625,8.63671875,-0.45703125,0.431640625,-1.341796875,0.0865478515625,-0.16986083984375,0.47845458984375,0.857177734375,-0.6070728811893993,-25.63317464865148,14.427326475964794
194,7.800057525000739,bno085,4.30859375,0.80078125,8.7890625,-0.251953125,-0.70703125,-0.94140625,0.07891845703125,-0.16363525390625,0.45184326171875,0.8734130859375,-0.08988846985758792,-24.571522451647684,10.64585509812556
195,7.84005725300085,bno085,3.390625,-0.578125,9.015625,-0.251953125,-0.70703125,-0.94140625,0.08135986328125,-0.17120361328125,0.43707275390625,0.87921142578125,0.25368506035873195,-25.47694619631887,8.704413486058872
196,7.880060110001068,bno085,3.92578125,-0.078125,8.5625,-0.53515625,-0.29296875,-1.501953125,0.0794677734375,-0.17877197265625,0.40399169921875,0.89361572265625,0.8123895018794879,-26.13560627696607,4.315310900690648
197,7.920056856000883,bno085,2.125,0.34375,9.25,0.791015625,2.896484375,0.939453125,0.0699462890625,-0.1368408203125,0.40142822265625,0.90289306640625,1.9756427736055573,-21.211589295667515,3.4837114725348184
198,7.960059806000572,bno085,3.08203125,0.265625,9.25390625,0.58203125,-0.03125,0.212890625,0.082275390625,-0.1324462890625,0.3980712890625,0.90399169921875,3.6377556572009166,-21.30281374780096,2.805701793034039
199,8.00005818200043,bno085,3.16015625,0.76171875,9.2890625,0.802734375,0.267578125,-0.650390625,0.082275390625,-0.1324462890625,0.3980712890625,0.90399169921875,3.6377556572009166,-21.30281374780096,2.805701793034039
200,8.040057558000626,bno085,2.39453125,0.45703125,9.55859375,0.802734375,0.267578125,-0.650390625,0.095458984375,-0.1162109375,0.39019775390625,0.90838623046875,6.065107790571583,-20.119048000479147,1.4469190480515632
201,8.080057471001055,bno085,3.08203125,1.64453125,9.21484375,0.46484375,-0.61328125,-0.3359375,0.11663818359375,-0.1199951171875,0.38043212890625,0.9095458984375,8.518780412820105,-21.373152517958154,-0.13734242126009694
202,8.120057698000892,bno085,2.43359375,1.64453125,9.171875,0.890625,0.13671875,-0.763671875,0.13726806640625,-0.10552978515625,0.36688232421875,0.91400146484375,11.806422493156537,-20.524089515676923,-2.242184406516499
203,8.160057370001596,bno085,2.27734375,2.44921875,8.56640625,-0.125,0.708984375,0.158203125,0.13726806640625,-0.10552978515625,0.36688232421875,0.91400146484375,11.806422493156537,-20.524089515676923,-2.242184406516499
204,8.200057949999973,bno085,1.89453125,1.109375,8.5625,0.126953125,-1.001953125,0.974609375,0.1295166015625,-0.0870361328125,0.37188720703125,0.91510009765625,11.55122347612494,-18.27596731511441,-1.4420720519798422
205,8.240059122001185,bno085,3.58203125,1.22265625,9.67578125,0.763671875,-0.1640625,1.794921875,0.1363525390625,-0.104248046875,0.390625,0.9044189453125,11.109133217383334,-20.675347580268546,0.8671702828791099
206,8.280058702001043,bno085,2.81640625,2.33203125,9.40234375,0.763671875,-0.1640625,1.794921875,0.14892578125,-0.11212158203125,0.431396484375,0.8826904296875,10.946119576822792,-22.648968989558586,6.122906343227994
207,8.320060929001556,bno085,3.58203125,0.83984375,9.78515625,0.322265625,1.296875,0.59765625,0.14556884765625,-0.08837890625,0.44842529296875,0.87744140625,11.253714552985425,-20.22160168171765,8.40766910294858
208,8.36006715700023,bno085,2.73828125,2.140625,9.1328125,0.873046875,2.25390625,0.0078125,0.1390380859375,-0.0299072265625,0.45562744140625,0.87872314453125,13.31653038829962,-13.962062698636332,9.563680430145444
209,8.40005686600125,bno085,0.515625,1.98828125,8.02734375,0.873046875,2.25390625,0.0078125,0.1390380859375,-0.0299072265625,0.45562744140625,0.87872314453125,13.31653038829962,-13.962062698636332,9.563680430145444
210,8.440059594000559,bno085,1.55078125,1.796875,9.8203125,-0.33203125,0.828125,-0.1328125,0.12811279296875,-0.02777099609375,0.44940185546875,0.8836669921875,12.397201182102066,-13.080640819053112,8.842361955891093
211,8.480057933000353,bno085,1.51171875,1.72265625,8.59765625,-0.23046875,0.587890625,-0.453125,0.1181640625,-0.0224609375,0.43670654296875,0.89154052734375,11.841454406851364,-11.846970372230459,7.2943278818874875
212,8.52005886400002,bno085,1.12890625,1.64453125,9.4375,0.314453125,0.833984375,-0.744140625,0.115234375,-0.00140380859375,0.4222412109375,0.89910888671875,12.761106773437335,-9.318525932450912,5.630186813619837
213,8.560058091999963,bno085,0.5546875,1.453125,9.37109375,0.80078125,0.734375,-0.33203125,0.115234375,-0.00140380859375,0.4222412109375,0.89910888671875,12.761106773437335,-9.318525932450912,5.630186813619837
214,8.600058597001407,bno085,0.70703125,1.875,9.51953125,1.572265625,2.123046875,0.05859375,0.12359619140625,0.021728515625,0.4117431640625,0.90264892578125,14.850678994836677,-7.1591742288497455,4.547498596817715
215,8.64005793600154,bno085,-0.59375,3.40625,7.37890625,0.8203125,1.140625,1.3046875,0.136474609375,0.0771484375,0.416748046875,0.8953857421875,18.760005631474524,-2.196895783317516,6.1595792932890685
216,8.680066701001124,bno085,-1.3203125,3.828125,9.671875,0.8203125,1.140625,1.3046875,0.1383056640625,0.12841796875,0.44158935546875,0.87713623046875,21.469760433191972,2.2752776027451493,10.60362828258709
217,8.720059391000177,bno085,-1.12890625,4.2890625,8.4453125,0.58203125,1.341796875,0.67578125,0.1363525390625,0.1590576171875,0.4581298828125,0.86383056640625,22.985545659929453,4.953577027190059,13.671344729264414
218,8.760057545001473,bno085,-2.01171875,4.25,8.91015625,0.345703125,0.765625,-0.193359375,0.1363525390625,0.1590576171875,0.4581298828125,0.86383056640625,22.985545659929453,4.953577027190059,13.671344729264414
219,8.800058310000168,bno085,-2.01171875,4.2890625,7.8671875,0.40625,0.208984375,-0.51171875,0.13665771484375,0.1790771484375,0.4532470703125,0.8624267578125,24.188903266342372,6.995364211366549,13.780216170063882
220,8.840058889001739,bno085,-2.5859375,4.59375,7.3359375,0.40625,0.208984375,-0.51171875,0.1407470703125,0.19097900390625,0.4405517578125,0.86578369140625,25.27177889409711,8.268388706607874,12.670253075511425
221,8.880060802001026,bno085,-2.08984375,3.828125,9.015625,0.0234375,-1.04296875,-0.45703125,0.14874267578125,0.1845703125,0.427490234375,0.87237548828125,25.668368672715875,7.590383717140688,10.835204780609756
222,8.920060308000757,bno085,-1.703125,4.32421875,7.72265625,1.98046875,-2.427734375,-0.42578125,0.20556640625,0.163330078125,0.401611328125,0.87738037109375,30.425416806637376,3.370497075101989,7.135942322862771
223,8.960059350001757,bno085,-1.28515625,4.7109375,7.640625,2.197265625,-2.84765625,0.28515625,0.20556640625,0.163330078125,0.401611328125,0.87738037109375,30.425416806637376,3.370497075101989,7.135942322862771
224,9.000058967001678,bno085,0.515625,5.8203125,7.48828125,2.62109375,-4.14453125,0.919921875,0.294189453125,0.1180419921875,0.37139892578125,0.8726806640625,37.99701411711242,-4.243468085446208,1.8494839500718887
225,9.040058398000838,bno085,1.8203125,6.43359375,6.953125,2.62109375,-4.14453125,0.919921875,0.400146484375,0.05462646484375,0.34429931640625,0.8475341796875,48.19209022813017,-13.932259258709502,-4.631799051858978
226,9.080058885001563,bno085,2.125,8.12109375,5.265625,3.654296875,-1.583984375,-0.841796875,0.48681640625,0.0416259765625,0.3067626953125,0.8167724609375,59.34393099109732,-16.563593835514112,-10.620002567226901
227,9.120058594000511,bno085,2.1640625,8.34765625,3.46484375,2.767578125,-0.03125,0.234375,0.53948974609375,0.06207275390625,0.3095703125,0.78057861328125,66.81598336484733,-16.962793016958198,-9.947044014295534
228,9.160058433000813,bno085,3.16015625,8.88671875,2.66015625,1.1953125,0.19140625,-0.150390625,0.53948974609375,0.06207275390625,0.3095703125,0.78057861328125,66.81598336484733,-16.962793016958198,-9.947044014295534
229,9.200057994001327,bno085,2.46875,9.57421875,3.0078125,-0.28515625,-0.49609375,-0.791015625,0.56280517578125,0.078857421875,0.30889892578125,0.76263427734375,70.42955301466623,-16.410399869988012,-9.321614317378629
230,9.24005935200148,bno085,1.89453125,8.0390625,3.2734375,-0.28515625,-0.49609375,-0.791015625,0.56109619140625,0.0792236328125,0.29022216796875,0.7711181640625,70.41243866448374,-14.950709863700993,-11.17246400103321
231,9.28005695000138,bno085,1.703125,7.578125,2.05078125,0.884765625,-0.564453125,-1.380859375,0.576171875,0.1138916015625,0.2574462890625,0.767333984375,73.67582398597415,-10.172851024029852,-12.229542196457361
232,9.320057640001323,bno085,0.78515625,11.10546875,3.6953125,0.341796875,-0.166015625,-0.251953125,0.57977294921875,0.130615234375,0.23992919921875,0.76763916015625,74.77516494413588,-7.609004315758087,-12.748136848148627
233,9.360057163999954,bno085,0.8984375,8.96484375,2.2421875,0.029296875,-0.591796875,-0.35546875,0.57977294921875,0.130615234375,0.23992919921875,0.76763916015625,74.77516494413588,-7.609004315758087,-12.748136848148627
234,9.400059040000997,bno085,0.78515625,9.765625,2.546875,-0.255859375,-0.40234375,-0.083984375,0.58331298828125,0.12493896484375,0.2235107421875,0.7708740234375,75.21469117145737,-6.992987527026031,-14.725546410401307
235,9.440057435000199,bno085,0.59375,8.76953125,1.89453125,-0.255859375,-0.40234375,-0.083984375,0.58258056640625,0.11737060546875,0.21649169921875,0.77459716796875,74.95338399729613,-7.08221534761944,-15.924596843237474
236,9.480059940000501,bno085,0.9375,10.19140625,2.01171875,-0.017578125,0.0078125,-0.46484375,0.58343505859375,0.1197509765625,0.20672607421875,0.77618408203125,75.19349175114841,-6.188541690656745,-16.670837903972817
237,9.520059649001269,bno085,0.28515625,9.0,2.5859375,-0.044921875,0.287109375,-0.37109375,0.57989501953125,0.13018798828125,0.20147705078125,0.778564453125,75.01435678657224,-4.799935272847066,-16.387119586190078
238,9.560056581000026,bno085,0.28515625,9.1875,2.39453125,-0.07421875,0.349609375,-0.3671875,0.57989501953125,0.13018798828125,0.20147705078125,0.778564453125,75.01435678657224,-4.799935272847066,-16.387119586190078
239,9.600057938001555,bno085,-0.09765625,9.91796875,2.69921875,-0.111328125,0.060546875,0.365234375,0.5762939453125,0.13958740234375,0.19805908203125,0.780517578125,74.8064649963253,-3.633754861123088,-16.00992301336735
240,9.640060777001054,bno085,0.28515625,9.07421875,3.2734375,0.33984375,0.23046875,0.126953125,0.57659912109375,0.13677978515625,0.20538330078125,0.77886962890625,74.72614396077357,-4.419313970062254,-15.534694410655266
241,9.680059375001292,bno085,0.28515625,9.30859375,2.625,0.33984375,0.23046875,0.126953125,0.57940673828125,0.142822265625,0.210205078125,0.7744140625,75.27122639152729,-4.370112304453905,-14.652716919786373
242,9.720058381000854,bno085,0.6328125,9.4921875,2.69921875,-0.1171875,0.99609375,-0.35546875,0.57177734375,0.1669921875,0.21856689453125,0.77288818359375,74.97821499978609,-2.703998126945059,-12.08239363396361
243,9.76005716400141,bno085,0.5546875,9.265625,2.1640625,0.20703125,-0.080078125,-0.013671875,0.5758056640625,0.16473388671875,0.21331787109375,0.77191162109375,75.47912612624782,-2.655287844116829,-12.740527592796074
244,9.800058336000802,bno085,0.82421875,9.34765625,2.46875,0.75,-0.240234375,0.140625,0.5758056640625,0.16473388671875,0.21331787109375,0.77191162109375,75.47912612624782,-2.655287844116829,-12.740527592796074
245,9.84005621200049,bno085,0.78515625,9.5703125,2.125,0.841796875,0.130859375,0.0546875,0.59124755859375,0.16351318359375,0.2083740234375,0.76171875,77.60348183249536,-2.9783481050652525,-13.30347935192326
246,9.880058903001554,bno085,0.78515625,9.53515625,1.703125,0.841796875,0.130859375,0.0546875,0.60723876953125,0.1673583984375,0.204833984375,0.74920654296875,80.01161330064413,-3.0166277765094454,-13.346515059729057
247,9.9200590190012,bno085,0.48046875,9.609375,1.359375,0.294921875,0.205078125,0.025390625,0.6138916015625,0.1705322265625,0.20501708984375,0.74298095703125,81.0723856925829,-3.043471203473242,-13.090341133960504
248,9.960059155000636,bno085,0.32421875,9.80859375,1.16796875,-0.37109375,0.099609375,0.01171875,0.61474609375,0.17236328125,0.20562744140625,0.74169921875,81.25745851205731,-2.9824627146537956,-12.892546710941094
249,10.000058160001572,bno085,0.32421875,9.5703125,1.20703125,0.3359375,-0.080078125,-0.1640625,0.61474609375,0.17236328125,0.20562744140625,0.74169921875,81.25745851205731,-2.9824627146537956,-12.892546710941094
250,10.040058203001536,bno085,0.1328125,9.53515625,1.3984375,0.5625,-0.08984375,-0.0859375,0.61981201171875,0.17279052734375,0.200439453125,0.73876953125,82.0260882626309,-2.7405574454870782,-13.324732490022248
251,10.080056838000019,bno085,0.05859375,9.65234375,1.0546875,0.5625,-0.08984375,-0.0859375,0.6290283203125,0.1737060546875,0.1939697265625,0.73248291015625,83.42650219103885,-2.5163763267376584,-13.82613913043545
252,10.120058232001611,bno085,0.28515625,9.95703125,1.015625,-0.24609375,0.154296875,-0.037109375,0.62481689453125,0.1754150390625,0.1954345703125,0.73529052734375,82.86856220973678,-2.3367302636428717,-13.558451300520328
253,10.160058312001638,bno085,0.1328125,9.73046875,1.3203125,-1.955078125,-0.09375,-0.291015625,0.60516357421875,0.1710205078125,0.1915283203125,0.75360107421875,79.90837609889422,-1.6128529626733052,-14.251396229929162
254,10.200059910001073,bno085,0.09375,9.4609375,1.3984375,0.66015625,-0.052734375,-0.19921875,0.60516357421875,0.1710205078125,0.1915283203125,0.75360107421875,79.90837609889422,-1.6128529626733052,-14.251396229929162
255,10.240057767001417,bno085,-0.171875,9.609375,1.28125,0.806640625,-0.0625,-0.115234375,0.62060546875,0.176025390625,0.1810302734375,0.7423095703125,82.34476524540435,-0.9820263471254742,-14.772349350768556
256,10.280057310001212,bno085,-0.2890625,9.4921875,0.78515625,0.806640625,-0.0625,-0.115234375,0.63629150390625,0.17938232421875,0.17352294921875,0.72998046875,84.78782318435003,-0.7150517052429803,-15.12693858454925
257,10.320056723001471,bno085,-0.2890625,9.57421875,0.40234375,0.271484375,0.146484375,0.12890625,0.6434326171875,0.1805419921875,0.17498779296875,0.7230224609375,85.87951953398161,-1.0205071327210722,-14.89766511537662
258,10.360057580001012,bno085,-0.44140625,9.53515625,0.4765625,0.4453125,0.12890625,0.416015625,0.65142822265625,0.1783447265625,0.18072509765625,0.7149658203125,86.96644942729593,-1.967516943731818,-14.589993071802088
259,10.400056938000489,bno085,-0.48046875,10.11328125,0.70703125,0.173828125,1.201171875,0.01953125,0.65142822265625,0.1783447265625,0.18072509765625,0.7149658203125,86.96644942729593,-1.967516943731818,-14.589993071802088
260,10.440057480000178,bno085,-0.515625,9.6484375,0.32421875,-0.2265625,0.048828125,0.001953125,0.65216064453125,0.19000244140625,0.1925048828125,0.70819091796875,87.46290613930869,-2.122247212324799,-12.620958531856264
261,10.480056504000459,bno085,-0.44140625,9.53515625,0.86328125,-0.2265625,0.048828125,0.001953125,0.64788818359375,0.19146728515625,0.1959228515625,0.71075439453125,86.86545171110468,-2.120187964954105,-12.208447294909714
262,10.520056640001712,bno085,-0.5546875,9.421875,1.015625,-0.568359375,0.5234375,0.044921875,0.635986328125,0.19573974609375,0.2056884765625,0.71759033203125,85.22957687799313,-2.1014708001471005,-11.01400001256925
263,10.560057164000682,bno085,-0.6328125,9.49609375,1.3984375,-0.279296875,-0.1796875,-0.455078125,0.62982177734375,0.19879150390625,0.19970703125,0.72381591796875,84.4797145045812,-1.1223804507303246,-11.283895571870344
264,10.600057855001069,bno085,-1.015625,9.49609375,1.47265625,0.119140625,0.1484375,-0.7109375,0.62982177734375,0.19879150390625,0.19970703125,0.72381591796875,84.4797145045812,-1.1223804507303246,-11.283895571870344
265,10.64005880500008,bno085,-1.28515625,9.109375,1.12890625,0.2265625,0.244140625,-0.296875,0.62884521484375,0.21136474609375,0.18670654296875,0.72454833984375,84.92799132898686,0.9040049956663396,-11.362025296687914
266,10.680057810001017,bno085,-1.359375,9.42578125,1.12890625,0.2265625,0.244140625,-0.296875,0.63018798828125,0.22198486328125,0.181396484375,0.7215576171875,85.62325454560738,2.054679492040914,-10.911829866313543
267,10.720057945000008,bno085,-1.4765625,9.46484375,0.9375,0.150390625,0.12109375,-0.24609375,0.63134765625,0.2291259765625,0.17779541015625,0.71923828125,86.14273696918424,2.814851857264019,-10.598453235279438
268,10.760057118000987,bno085,-1.703125,9.421875,0.671875,0.1875,0.1875,-0.1015625,0.63348388671875,0.2342529296875,0.17584228515625,0.7161865234375,86.71112415251204,3.247500203964852,-10.306388317032805
269,10.800057456001014,bno085,-1.703125,9.4921875,0.671875,0.1640625,0.15625,-0.125,0.63348388671875,0.2342529296875,0.17584228515625,0.7161865234375,86.71112415251204,3.247500203964852,-10.306388317032805
270,10.840056758001083,bno085,-1.58984375,9.42578125,0.44140625,0.005859375,0.154296875,0.099609375,0.6351318359375,0.2392578125,0.17523193359375,0.71319580078125,87.20271882499955,3.577865029894444,-9.910072245209484
271,10.880057653001131,bno085,-1.62890625,9.65234375,0.44140625,0.005859375,0.154296875,0.099609375,0.635498046875,0.240966796875,0.177490234375,0.71173095703125,87.33247837707307,3.494385276487371,-9.568369383884932
272,10.92005686200173,bno085,-1.62890625,9.3828125,0.5546875,0.076171875,0.07421875,-0.03125,0.63641357421875,0.242431640625,0.17767333984375,0.71038818359375,87.54044924941988,3.5403188426102066,-9.41781729718778
273,10.960058775001016,bno085,-1.62890625,9.3828125,0.5546875,0.158203125,0.150390625,0.1640625,0.63934326171875,0.24273681640625,0.1806640625,0.7069091796875,87.97456962778257,3.178204444650678,-9.122086699863972
274,11.000058114001149,bno085,-1.55078125,9.53125,0.515625,0.064453125,0.14453125,0.1171875,0.63934326171875,0.24273681640625,0.1806640625,0.7069091796875,87.97456962778257,3.178204444650678,-9.122086699863972
275,11.040057471000182,bno085,-1.51171875,9.609375,0.40234375,0.017578125,0.06640625,0.0,0.64093017578125,0.2431640625,0.18414306640625,0.70440673828125,88.21495006597043,2.8427470482929693,-8.78479363973242
276,11.080057514000146,bno085,-1.4765625,9.5703125,0.32421875,0.017578125,0.06640625,0.0,0.64178466796875,0.24407958984375,0.18536376953125,0.70294189453125,88.38215605412212,2.7621672480689194,-8.598020574602304
277,11.120058149001125,bno085,-1.4375,9.61328125,0.32421875,0.013671875,0.021484375,0.02734375,0.64215087890625,0.24359130859375,0.18511962890625,0.702880859375,88.41278777574828,2.7327322906599325,-8.65879615977822
278,11.160058209999988,bno085,-1.4375,9.38671875,0.40234375,0.013671875,0.013671875,0.0390625,0.6422119140625,0.2425537109375,0.18463134765625,0.7032470703125,88.37096796961463,2.697935272116117,-8.792079811785436
279,11.2000591420001,bno085,-1.55078125,9.4921875,0.5546875,0.0390625,0.0,0.10546875,0.6422119140625,0.2425537109375,0.18463134765625,0.7032470703125,88.37096796961463,2.697935272116117,-8.792079811785436
280,11.240058629000487,bno085,-1.3984375,9.1875,0.4765625,0.15625,0.111328125,0.4765625,0.64385986328125,0.24066162109375,0.18603515625,0.7020263671875,88.5133100443524,2.372690110423208,-8.833092038521292
281,11.280056782999964,bno085,-1.24609375,9.53515625,0.44140625,0.15625,0.111328125,0.4765625,0.64837646484375,0.235595703125,0.19342041015625,0.6976318359375,88.89944163982828,1.1905985901973406,-8.641547588136682
282,11.320057066001027,bno085,-1.015625,9.3828125,0.40234375,0.232421875,0.166015625,0.662109375,0.65582275390625,0.227783203125,0.2049560546875,0.68994140625,89.58384750407471,-0.6797746224824005,-8.341115052361767
283,11.360057868001604,bno085,-0.82421875,9.84375,0.1328125,0.283203125,0.15234375,0.638671875,0.6640625,0.220703125,0.2158203125,0.68096923828125,90.44996802283846,-2.496810458744987,-8.045107493683739
284,11.400057688000743,bno085,-0.40234375,10.109375,0.01953125,0.341796875,-0.01171875,0.01171875,0.6640625,0.220703125,0.2158203125,0.68096923828125,90.44996802283846,-2.496810458744987,-8.045107493683739
285,11.440055768000093,bno085,-0.515625,9.61328125,-0.1328125,0.26171875,-0.033203125,0.0,0.670654296875,0.22161865234375,0.21356201171875,0.6749267578125,91.51118198927686,-2.5651005078693165,-8.155650571921791
286,11.48005740300141,bno085,-0.515625,9.61328125,-0.2109375,0.26171875,-0.033203125,0.0,0.67559814453125,0.22216796875,0.21112060546875,0.67059326171875,92.31080261599938,-2.5604153469125106,-8.310747900141147
287,11.520057390000147,bno085,-0.59375,9.6875,-0.32421875,0.017578125,-0.044921875,-0.05078125,0.67706298828125,0.2215576171875,0.2083740234375,0.670166015625,92.52292866539557,-2.432404287362453,-8.590443722395737
288,11.560057488000893,bno085,-0.6328125,9.6484375,-0.2109375,0.0234375,-0.08984375,-0.244140625,0.67724609375,0.22283935546875,0.20196533203125,0.6715087890625,92.64060541807729,-1.794371037496067,-9.000023931479486
289,11.600064920001387,bno085,-0.6328125,9.4921875,-0.2890625,-0.021484375,-0.01171875,-0.16796875,0.67724609375,0.22283935546875,0.20196533203125,0.6715087890625,92.64060541807729,-1.794371037496067,-9.000023931479486
290,11.640057148000778,bno085,-0.6328125,9.46484375,-0.2890625,-0.025390625,0.064453125,-0.025390625,0.6766357421875,0.22509765625,0.19793701171875,0.67254638671875,92.66984513264237,-1.2631566412953381,-9.12784499318924
291,11.680057228000805,bno085,-0.7109375,9.57421875,-0.2890625,-0.025390625,0.064453125,-0.025390625,0.676025390625,0.22607421875,0.19781494140625,0.6728515625,92.62152017239035,-1.158829866258142,-9.051904281175714
292,11.720057585000177,bno085,-0.7109375,9.57421875,-0.2109375,-0.08984375,0.041015625,0.015625,0.6748046875,0.225830078125,0.1986083984375,0.6739501953125,92.41736716804624,-1.1841511936005413,-9.009973790721952
293,11.760059220001494,bno085,-0.7109375,9.5703125,-0.171875,-0.044921875,0.025390625,0.05078125,0.67425537109375,0.22509765625,0.19952392578125,0.67449951171875,92.29387053798827,-1.2851441131372825,-9.00048354473778
294,11.800057522001225,bno085,-0.671875,9.5703125,-0.2109375,-0.033203125,-0.005859375,0.107421875,0.67425537109375,0.22509765625,0.19952392578125,0.67449951171875,92.29387053798827,-1.2851441131372825,-9.00048354473778
295,11.840059139000005,bno085,-0.671875,9.61328125,-0.1328125,-0.001953125,-0.013671875,0.103515625,0.6744384765625,0.22271728515625,0.20025634765625,0.67486572265625,92.20825175115941,-1.516351300092282,-9.15179292434119
296,11.880058885000835,bno085,-0.671875,9.5703125,-0.1328125,-0.001953125,-0.013671875,0.103515625,0.675048828125,0.22027587890625,0.201171875,0.67474365234375,92.18636521279784,-1.7891613364328096,-9.293151774959775
297,11.920056650000333,bno085,-0.59375,9.609375,-0.1328125,0.001953125,-0.0078125,0.119140625,0.67584228515625,0.21746826171875,0.20220947265625,0.67462158203125,92.17736050854268,-2.103230958483915,-9.454206346665167
298,11.960056285000974,bno085,-0.515625,9.57421875,-0.09765625,0.048828125,-0.001953125,0.0546875,0.67742919921875,0.21563720703125,0.20166015625,0.6737060546875,92.34414040744932,-2.2555666817604836,-9.661865395102613
299,12.000058958001318,bno085,-0.515625,9.61328125,-0.2109375,0.091796875,0.001953125,0.0390625,0.67742919921875,0.21563720703125,0.20166015625,0.6737060546875,92.34414040744932,-2.2555666817604836,-9.661865395102613
300,12.040055371000562,bno085,-0.5546875,9.61328125,-0.2109375,0.056640625,0.01953125,0.009765625,0.6793212890625,0.21527099609375,0.201416015625,0.6719970703125,92.62321702706436,-2.3491750836872214,-9.714378006373636
301,12.080055636000907,bno085,-0.515625,9.61328125,-0.2890625,0.056640625,0.01953125,0.009765625,0.68048095703125,0.21527099609375,0.20111083984375,0.6708984375,92.80538201063831,-2.378532088888671,-9.7399246999172
302,12.120059308001146,bno085,-0.5546875,9.5703125,-0.25,0.0546875,0.0078125,0.01171875,0.68145751953125,0.21533203125,0.200927734375,0.669921875,92.96140421252606,-2.4059004693805406,-9.750184560434858
303,12.160058536001088,bno085,-0.515625,9.5703125,-0.2890625,0.103515625,0.005859375,0.013671875,0.6834716796875,0.21478271484375,0.19915771484375,0.66864013671875,93.26037464514658,-2.3813992552465306,-9.941588623541952
304,12.200058819000333,bno085,-0.515625,9.61328125,-0.36328125,0.05078125,0.009765625,0.009765625,0.6834716796875,0.21478271484375,0.19915771484375,0.66864013671875,93.26037464514658,-2.3813992552465306,-9.941588623541952
305,12.24005728800148,bno085,-0.515625,9.5703125,-0.36328125,-0.0390625,0.021484375,0.005859375,0.68450927734375,0.2144775390625,0.19830322265625,0.66790771484375,93.41356114390132,-2.376545987946587,-10.038474871808372
306,12.280056775000048,bno085,-0.515625,9.5703125,-0.36328125,-0.0390625,0.021484375,0.005859375,0.68414306640625,0.21405029296875,0.197998046875,0.66851806640625,93.33862962113541,-2.3601057084954298,-10.100651867958995
307,12.320058873001472,bno085,-0.48046875,9.53515625,-0.25,-0.111328125,0.01171875,-0.001953125,0.6827392578125,0.21331787109375,0.19793701171875,0.67022705078125,93.08667444879639,-2.335643095270903,-10.169394531243894
308,12.360058101001414,bno085,-0.44140625,9.49609375,-0.2109375,-0.025390625,-0.015625,0.00390625,0.682373046875,0.2122802734375,0.197021484375,0.67120361328125,92.98809877282699,-2.306582793098886,-10.334887144120684
309,12.400056070000574,bno085,-0.44140625,9.49609375,-0.2109375,-0.12890625,-0.037109375,0.00390625,0.682373046875,0.2122802734375,0.197021484375,0.67120361328125,92.98809877282699,-2.306582793098886,-10.334887144120684
310,12.440055038001447,bno085,-0.40234375,9.4609375,-0.09765625,-0.181640625,-0.01953125,0.0,0.6810302734375,0.21051025390625,0.1961669921875,0.67333984375,92.7051326268725,-2.287301721886957,-10.560344563352457
311,12.480055322001135,bno085,-0.32421875,9.42578125,0.01953125,-0.181640625,-0.01953125,0.0,0.67852783203125,0.20843505859375,0.19537353515625,0.6767578125,92.22939046075618,-2.2401232537575466,-10.805959103407066
312,12.520055475000845,bno085,-0.2109375,9.26953125,0.32421875,-0.216796875,-0.01953125,0.0,0.67535400390625,0.20648193359375,0.195068359375,0.68060302734375,91.65498224494091,-2.1998179025670255,-11.0010571120242
313,12.560055074000047,bno085,-0.171875,9.1875,0.40234375,-0.171875,0.0,0.0,0.6727294921875,0.20489501953125,0.19464111328125,0.68377685546875,91.18429291781197,-2.1520278402166944,-11.17415293914098
314,12.60005767200164,bno085,-0.1328125,9.19140625,0.4765625,-0.017578125,-0.013671875,-0.001953125,0.6727294921875,0.20489501953125,0.19464111328125,0.68377685546875,91.18429291781197,-2.1520278402166944,-11.17415293914098
315,12.640055233001476,bno085,-0.171875,9.2265625,0.40234375,0.19140625,-0.01171875,0.001953125,0.6722412109375,0.2041015625,0.19384765625,0.6846923828125,91.0792539844238,-2.1165531305427274,-11.308649120280633
316,12.680056072000298,bno085,-0.2109375,9.3046875,0.25,0.19140625,-0.01171875,0.001953125,0.67529296875,0.20428466796875,0.192138671875,0.68218994140625,91.56626082375016,-2.0922333889069025,-11.431447685237039
317,12.720054874000198,bno085,-0.25,9.3046875,0.1328125,0.208984375,-0.01953125,0.0,0.67913818359375,0.2042236328125,0.18963623046875,0.6790771484375,92.17195981416356,-2.0530697980748585,-11.640923536487252
318,12.760055620001367,bno085,-0.2890625,9.38671875,-0.01953125,0.111328125,-0.013671875,0.0,0.681396484375,0.20404052734375,0.18798828125,0.67730712890625,92.52387152017103,-2.024310697248149,-11.790890696327905
319,12.80005555200114,bno085,-0.32421875,9.42578125,-0.05859375,-0.064453125,-0.001953125,-0.005859375,0.681396484375,0.20404052734375,0.18798828125,0.67730712890625,92.52387152017103,-2.024310697248149,-11.790890696327905
320,12.840055428001506,bno085,-0.32421875,9.4609375,0.01953125,-0.146484375,0.04296875,-0.015625,0.68096923828125,0.20343017578125,0.18707275390625,0.6781005859375,92.4357454610473,-1.9684890685246619,-11.919879193021051
321,12.880057082000349,bno085,-0.32421875,9.4609375,0.09375,-0.146484375,0.04296875,-0.015625,0.6781005859375,0.20428466796875,0.1871337890625,0.68072509765625,92.02455250319662,-1.786268607175963,-11.84002025627322
322,12.920058902000164,bno085,-0.32421875,10.57421875,-0.171875,-0.349609375,0.095703125,-0.0625,0.672119140625,0.20489501953125,0.186767578125,0.68658447265625,91.1265020751358,-1.4449301715888607,-11.818891304662595
323,12.960057760001291,bno085,-0.671875,9.49609375,-0.01953125,-0.5859375,-0.044921875,-1.302734375,0.65728759765625,0.218994140625,0.16998291015625,0.7008056640625,89.55936861099664,1.6156214173682606,-12.000500026310744
324,13.000058488001741,bno085,-0.9765625,9.109375,0.40234375,-0.2578125,0.1484375,-0.693359375,0.65728759765625,0.218994140625,0.16998291015625,0.7008056640625,89.55936861099664,1.6156214173682606,-12.000500026310744
325,13.040057882000838,bno085,-1.28515625,9.109375,0.6328125,-0.125,0.1171875,0.0390625,0.64697265625,0.2313232421875,0.16009521484375,0.708740234375,88.63261160259727,3.7554641371369004,-11.786285105165069
326,13.08005540600061,bno085,-1.58984375,9.4921875,0.9375,-0.125,0.1171875,0.0390625,0.6435546875,0.233642578125,0.1611328125,0.7108154296875,88.23120347423031,3.97909966901929,-11.520352926175017
327,13.120055523000701,bno085,-1.359375,9.49609375,0.74609375,0.115234375,0.076171875,0.109375,0.6456298828125,0.23321533203125,0.16375732421875,0.70849609375,88.50802285498706,3.640833008134806,-11.326565226069528
328,13.160055418000411,bno085,-1.20703125,9.4921875,0.4765625,0.1953125,0.0625,0.1328125,0.64923095703125,0.2325439453125,0.16497802734375,0.705078125,89.0075123502416,3.3328751499385754,-11.262673693654621
329,13.200055423001686,bno085,-1.0546875,9.5703125,0.28515625,0.021484375,0.041015625,0.05859375,0.64923095703125,0.2325439453125,0.16497802734375,0.705078125,89.0075123502416,3.3328751499385754,-11.262673693654621
330,13.240057799001079,bno085,-1.0546875,9.61328125,0.28515625,-0.009765625,0.001953125,0.0078125,0.650146484375,0.2318115234375,0.16607666015625,0.70428466796875,89.10449060394232,3.1508633612704395,-11.230282729718413
331,13.280055138000534,bno085,-1.12890625,9.57421875,0.40234375,-0.009765625,0.001953125,0.0078125,0.6502685546875,0.23138427734375,0.16632080078125,0.7042236328125,89.10087864295129,3.0945812484024295,-11.247787848250574
332,13.320055292000688,bno085,-1.12890625,9.4921875,0.4765625,0.009765625,0.00390625,0.025390625,0.6505126953125,0.23077392578125,0.1661376953125,0.7042236328125,89.10875316915437,3.056304855800472,-11.31563547987362
333,13.360055557001033,bno085,-1.09375,9.53125,0.40234375,0.041015625,0.015625,0.056640625,0.65155029296875,0.2298583984375,0.16650390625,0.7034912109375,89.21877593323588,2.9164882482177874,-11.360011061467823
334,13.400055396001335,bno085,-1.09375,9.57421875,0.40234375,0.021484375,0.001953125,0.046875,0.65155029296875,0.2298583984375,0.16650390625,0.7034912109375,89.21877593323588,2.9164882482177874,-11.360011061467823
335,13.440055013001256,bno085,-1.0546875,9.5703125,0.36328125,0.03125,0.015625,0.0390625,0.6524658203125,0.228759765625,0.1666259765625,0.7030029296875,89.30326264518868,2.7902000032961203,-11.441191366637613
336,13.48005516700141,bno085,-1.0546875,9.5703125,0.40234375,0.03125,0.015625,0.0390625,0.65338134765625,0.2281494140625,0.16680908203125,0.7022705078125,89.41081239970822,2.6913601969783794,-11.475473514256631
337,13.520055413000591,bno085,-1.0546875,9.5703125,0.36328125,0.05078125,0.013671875,0.02734375,0.65447998046875,0.22760009765625,0.1666259765625,0.70147705078125,89.55091930716347,2.6205752144411254,-11.532710720619335
338,13.56005521500083,bno085,-1.0546875,9.53515625,0.36328125,0.013671875,-0.009765625,0.02734375,0.6551513671875,0.2266845703125,0.16632080078125,0.70123291015625,89.61015149924843,2.55355633360889,-11.634667161281712
339,13.600058221001746,bno085,-0.9765625,9.53125,0.28515625,0.05078125,0.0,0.015625,0.65643310546875,0.225830078125,0.16546630859375,0.70050048828125,89.7670432740835,2.5100356457338515,-11.773267260456471
340,13.64005896800154,bno085,-0.9765625,9.609375,0.25,0.001953125,0.0,0.0234375,0.65643310546875,0.225830078125,0.16546630859375,0.70050048828125,89.7670432740835,2.5100356457338515,-11.773267260456471
341,13.680058362000636,bno085,-0.9765625,9.57421875,0.28515625,0.001953125,0.0,0.0234375,0.656982421875,0.22503662109375,0.16546630859375,0.70025634765625,89.81279012947493,2.4312982967703722,-11.840166787339799
342,13.720055349000177,bno085,-0.9765625,9.5703125,0.32421875,-0.01171875,0.005859375,0.0390625,0.6571044921875,0.22412109375,0.1656494140625,0.70037841796875,89.78751025281325,2.3465845018890317,-11.90565659925251
343,13.760057614001198,bno085,-0.9765625,9.53515625,0.32421875,-0.009765625,-0.0078125,0.021484375,0.6573486328125,0.2230224609375,0.1651611328125,0.70062255859375,89.77548353218616,2.3009131908149985,-12.041130729598281
344,13.800057527001627,bno085,-1.015625,9.53125,0.32421875,-0.0078125,-0.021484375,0.021484375,0.6573486328125,0.2230224609375,0.1651611328125,0.70062255859375,89.77548353218616,2.3009131908149985,-12.041130729598281
345,13.84005927400176,bno085,-0.9765625,9.57421875,0.28515625,-0.02734375,-0.048828125,0.0078125,0.65753173828125,0.2220458984375,0.1649169921875,0.70086669921875,89.75920449552021,2.2465853975761387,-12.145438875180712
346,13.880060483001216,bno085,-1.0546875,9.53515625,0.40234375,0.056640625,-0.025390625,-0.07421875,0.65728759765625,0.22125244140625,0.1641845703125,0.70147705078125,89.68882778567126,2.262632768477025,-12.27719445549871
347,13.920056415001454,bno085,-1.0546875,9.53125,0.44140625,0.056640625,-0.025390625,-0.07421875,0.65777587890625,0.22161865234375,0.16180419921875,0.701416015625,89.79009726989774,2.4672136156067235,-12.43747281974545
348,13.960058884000318,bno085,-1.0546875,9.49609375,0.36328125,0.1015625,-0.017578125,-0.076171875,0.6591796875,0.2225341796875,0.15869140625,0.7005615234375,90.05926375963134,2.734825956014696,-12.601570365599663
349,14.000057852001191,bno085,-1.0546875,9.4609375,0.28515625,0.0390625,0.0,-0.021484375,0.6591796875,0.2225341796875,0.15869140625,0.7005615234375,90.05926375963134,2.734825956014696,-12.601570365599663
350,14.040055432000372,bno085,-1.09375,9.53125,0.25,-0.0078125,0.01171875,-0.009765625,0.66009521484375,0.22265625,0.156982421875,0.7000732421875,90.21165153913648,2.849372730893658,-12.72377998903151
351,14.080055697000716,bno085,-1.0546875,9.53515625,0.25,-0.0078125,0.01171875,-0.009765625,0.66015625,0.22265625,0.1566162109375,0.70001220703125,90.2222962412006,2.875976931081417,-12.754518283491148
352,14.120055314000638,bno085,-1.0546875,9.53515625,0.28515625,-0.06640625,0.037109375,0.0,0.6590576171875,0.2227783203125,0.1571044921875,0.700927734375,90.05914484671675,2.8904738734342215,-12.710123722953535
353,14.16005659700022,bno085,-1.015625,9.4609375,0.40234375,-0.08203125,0.07421875,0.017578125,0.65765380859375,0.22314453125,0.15850830078125,0.70184326171875,89.85731455458473,2.857873137751014,-12.571332263219274
354,14.200058659000206,bno085,-0.9765625,9.4921875,0.40234375,-0.015625,0.064453125,0.021484375,0.65765380859375,0.22314453125,0.15850830078125,0.70184326171875,89.85731455458473,2.857873137751014,-12.571332263219274
355,14.240058961000614,bno085,-0.9765625,9.53515625,0.32421875,-0.0078125,-0.015625,-0.009765625,0.65728759765625,0.22344970703125,0.15966796875,0.70184326171875,89.81097645552624,2.7973612419380642,-12.451709696150294
356,14.280055392000577,bno085,-1.015625,9.53515625,0.28515625,-0.0078125,-0.015625,-0.009765625,0.65728759765625,0.22320556640625,0.1593017578125,0.70196533203125,89.801105569303,2.810385585776642,-12.503793133356007
357,14.320055898000646,bno085,-0.9765625,9.421875,0.28515625,-0.0703125,-0.017578125,0.0703125,0.65643310546875,0.2215576171875,0.15972900390625,0.7032470703125,89.5938857007361,2.6966833581399556,-12.618439984294444
358,14.360055033001117,bno085,-0.9765625,9.4609375,0.44140625,-0.103515625,-0.021484375,0.0625,0.654541015625,0.21923828125,0.16058349609375,0.70550537109375,89.19809869253233,2.541118474360392,-12.763708778942084
359,14.400055372001589,bno085,-0.9765625,9.34375,0.671875,-0.099609375,-0.033203125,0.033203125,0.654541015625,0.21923828125,0.16058349609375,0.70550537109375,89.19809869253233,2.541118474360392,-12.763708778942084
360,14.440055008000854,bno085,-1.09375,9.3046875,0.86328125,-0.02734375,-0.048828125,-0.013671875,0.65325927734375,0.21746826171875,0.16107177734375,0.7071533203125,88.9227736088009,2.429453044303376,-12.88522975633134
361,14.480055736001304,bno085,-1.0546875,9.34375,0.74609375,-0.02734375,-0.048828125,-0.013671875,0.65289306640625,0.216552734375,0.16021728515625,0.7078857421875,88.82976628716722,2.449652162821624,-13.038808216167487
362,14.520055149001564,bno085,-1.015625,9.49609375,0.59375,0.0625,-0.02734375,-0.0078125,0.65399169921875,0.21624755859375,0.1591796875,0.707275390625,88.98626786210205,2.4706750098951367,-13.143534007497609
363,14.560054840001612,bno085,-1.12890625,9.38671875,0.6328125,0.0078125,-0.001953125,-0.080078125,0.65399169921875,0.21710205078125,0.15740966796875,0.7073974609375,89.03242265553502,2.679173002962176,-13.214157993357196
364,14.600058105001153,bno085,-1.12890625,9.46484375,0.59375,0.0390625,0.04296875,-0.013671875,0.65399169921875,0.21710205078125,0.15740966796875,0.7073974609375,89.03242265553502,2.679173002962176,-13.214157993357196
365,14.640056018000905,bno085,-1.09375,9.49609375,0.515625,0.07421875,0.001953125,-0.05859375,0.65447998046875,0.21795654296875,0.1571044921875,0.70672607421875,89.14585854125936,2.744479159302068,-13.161861304620231
366,14.680054653001207,bno085,-1.0546875,9.49609375,0.36328125,0.07421875,0.001953125,-0.05859375,0.65545654296875,0.21893310546875,0.156005859375,0.705810546875,89.34256997852209,2.8659621291478334,-13.159468180010133
367,14.720057844000621,bno085,-1.09375,9.49609375,0.5546875,-0.037109375,-0.013671875,-0.0234375,0.65496826171875,0.218994140625,0.15509033203125,0.7064208984375,89.27558896186228,2.966823305803257,-13.23225683218499
368,14.76005560900012,bno085,-1.20703125,9.53515625,0.5546875,-0.001953125,0.052734375,-0.02734375,0.6544189453125,0.22003173828125,0.1551513671875,0.70654296875,89.23968257690582,3.056800887799941,-13.140137873522297
369,14.800057671000104,bno085,-1.16796875,9.49609375,0.515625,0.0390625,0.021484375,-0.0625,0.6544189453125,0.22003173828125,0.1551513671875,0.70654296875,89.23968257690582,3.056800887799941,-13.140137873522297
370,14.840059010000914,bno085,-1.16796875,9.4921875,0.40234375,-0.0078125,0.017578125,-0.068359375,0.65447998046875,0.22149658203125,0.15399169921875,0.706298828125,89.32143412225035,3.25515809835786,-13.105177053013222
371,14.880069386001196,bno085,-1.0546875,9.49609375,0.36328125,-0.0078125,0.017578125,-0.068359375,0.65435791015625,0.2225341796875,0.153076171875,0.706298828125,89.35514967823497,3.410404711733068,-13.088885175177479
372,14.920057631999953,bno085,-0.9765625,9.57421875,0.25,0.03125,-0.01171875,0.0078125,0.6546630859375,0.22216796875,0.15252685546875,0.70623779296875,89.38655391933919,3.4176987234239586,-13.164243604763618
373,14.960058490001757,bno085,-1.0546875,9.42578125,0.2109375,-0.171875,-0.017578125,0.109375,0.65277099609375,0.219970703125,0.1541748046875,0.70831298828125,88.9930282800637,3.2028997900804157,-13.235421635684865
374,15.00005712500024,bno085,-1.3203125,9.46484375,0.59375,-0.1171875,0.072265625,0.119140625,0.65277099609375,0.219970703125,0.1541748046875,0.70831298828125,88.9930282800637,3.2028997900804157,-13.235421635684865
375,15.040058001000943,bno085,-1.015625,9.42578125,0.78515625,-0.07421875,-0.056640625,0.099609375,0.65130615234375,0.21795654296875,0.1573486328125,0.7095947265625,88.66739714200214,2.8556650033368722,-13.16031575610412
376,15.080059729001732,bno085,-1.0546875,9.42578125,0.86328125,-0.07421875,-0.056640625,0.099609375,0.65216064453125,0.21563720703125,0.15765380859375,0.70947265625,88.69003357176604,2.6302154400184787,-13.332623206009789
377,15.120059106000554,bno085,-1.24609375,9.49609375,0.671875,0.08984375,-0.087890625,-0.013671875,0.6539306640625,0.21417236328125,0.1556396484375,0.708740234375,88.89968904493715,2.6215803689653745,-13.615930170234465
378,15.160057241000686,bno085,-1.12890625,9.42578125,0.5546875,0.052734375,0.005859375,-0.0703125,0.6544189453125,0.2149658203125,0.15435791015625,0.70831298828125,89.01410177729076,2.7649168011067804,-13.649092596253615
379,15.200057154001115,bno085,-1.12890625,9.421875,0.59375,-0.03515625,0.103515625,-0.04296875,0.6544189453125,0.2149658203125,0.15435791015625,0.70831298828125,89.01410177729076,2.7649168011067804,-13.649092596253615
380,15.240056327000275,bno085,-1.09375,9.53125,0.59375,-0.06640625,0.166015625,-0.138671875,0.6531982421875,0.2169189453125,0.15484619140625,0.70867919921875,88.9155092510306,2.911866928415074,-13.44615083667256
381,15.280056777000937,bno085,-1.09375,9.49609375,0.515625,-0.06640625,0.166015625,-0.138671875,0.6510009765625,0.2215576171875,0.15509033203125,0.709228515625,88.79591426832773,3.311974894318882,-13.032441962762856
382,15.320057783001175,bno085,-1.12890625,9.46484375,0.59375,-0.08984375,0.17578125,-0.099609375,0.6485595703125,0.22589111328125,0.1563720703125,0.7098388671875,88.62662401963753,3.614595832527251,-12.561616601360912
383,15.3600594920008,bno085,-1.09375,9.38671875,0.59375,0.00390625,0.0703125,0.029296875,0.64794921875,0.227294921875,0.158203125,0.7095947265625,88.59401338874687,3.588060879440854,-12.290597806148654
384,15.4000570900007,bno085,-1.015625,9.65234375,0.40234375,-0.177734375,0.00390625,0.125,0.64617919921875,0.22515869140625,0.16094970703125,0.71124267578125,88.21691028705646,3.2826808087162114,-12.263818134373125
385,15.440058170001066,bno085,-1.09375,9.5703125,0.5546875,-0.017578125,-0.04296875,-0.0078125,0.64617919921875,0.22515869140625,0.16094970703125,0.71124267578125,88.21691028705646,3.2826808087162114,-12.263818134373125
386,15.480057417000353,bno085,-1.0546875,9.5703125,0.6328125,-0.017578125,-0.04296875,-0.0078125,0.64569091796875,0.2242431640625,0.1605224609375,0.71209716796875,88.10325576117732,3.274310601817841,-12.38199345924011
387,15.520058145000803,bno085,-1.09375,9.4921875,0.59375,0.02734375,-0.046875,-0.03125,0.64605712890625,0.22381591796875,0.1588134765625,0.71221923828125,88.1448839177057,3.3691470132790777,-12.559386122987489
388,15.560056577000069,bno085,-1.20703125,9.53125,0.6328125,-0.04296875,-0.033203125,-0.001953125,0.64569091796875,0.22308349609375,0.15826416015625,0.712890625,88.05846960254745,3.377652775376746,-12.671452512809074
389,15.600058916001217,bno085,-1.20703125,9.46484375,0.59375,0.009765625,-0.013671875,0.0546875,0.64569091796875,0.22308349609375,0.15826416015625,0.712890625,88.05846960254745,3.377652775376746,-12.671452512809074
390,15.640057088001413,bno085,-1.20703125,9.57421875,0.59375,0.068359375,-0.029296875,0.03125,0.64666748046875,0.22222900390625,0.15826416015625,0.7122802734375,88.16459505365688,3.276101364691628,-12.739827312118022
391,15.680057742001736,bno085,-1.0546875,9.61328125,0.36328125,-0.0234375,-0.041015625,-0.009765625,0.64849853515625,0.22137451171875,0.157958984375,0.7109375,88.40002061785447,3.1639892248149133,-12.828473922672126
392,15.720056526000917,bno085,-1.015625,9.53515625,0.40234375,-0.0234375,-0.041015625,-0.009765625,0.649169921875,0.2208251953125,0.1571044921875,0.71075439453125,88.47928960953054,3.1694765563163187,-12.941666852367533
393,15.760058235000542,bno085,-1.12890625,9.49609375,0.44140625,-0.05859375,0.0703125,0.03515625,0.64874267578125,0.22119140625,0.158447265625,0.710693359375,88.42617859879967,3.1007380188791336,-12.802252335132655
394,15.800057685000866,bno085,-1.16796875,9.609375,0.59375,-0.03125,0.09765625,-0.0078125,0.64874267578125,0.22119140625,0.158447265625,0.710693359375,88.42617859879967,3.1007380188791336,-12.802252335132655
395,15.84005771000011,bno085,-1.3203125,9.53125,0.74609375,0.052734375,0.05859375,-0.138671875,0.64794921875,0.22259521484375,0.159912109375,0.710693359375,88.36626020969541,3.1126840441084114,-12.562708473501635
396,15.880062123000243,bno085,-1.4765625,9.765625,0.6328125,-0.044921875,0.005859375,-0.373046875,0.6470947265625,0.22540283203125,0.15802001953125,0.71099853515625,88.37768958833169,3.5051566233399685,-12.478154784341363
397,15.920057758001349,bno085,-1.20703125,9.3046875,0.70703125,-0.044921875,0.005859375,-0.373046875,0.6441650390625,0.23126220703125,0.15155029296875,0.713134765625,88.24735950280996,4.58039478243786,-12.516435578608428
398,15.960056931000508,bno085,-1.24609375,9.4921875,0.40234375,-0.001953125,0.05078125,-0.291015625,0.64263916015625,0.23638916015625,0.14727783203125,0.7137451171875,88.28935209860344,5.362194110242155,-12.424886272606011
399,16.00005947400132,bno085,-1.359375,9.49609375,0.36328125,-0.064453125,-0.025390625,-0.037109375,0.64117431640625,0.2374267578125,0.1456298828125,0.715087890625,88.13004901138281,5.634191913561325,-12.480403460060705
400,16.04005820200109,bno085,-1.4765625,9.53125,0.40234375,-0.021484375,-0.041015625,-0.037109375,0.64117431640625,0.2374267578125,0.1456298828125,0.715087890625,88.13004901138281,5.634191913561325,-12.480403460060705
401,16.080058688999998,bno085,-1.4375,9.42578125,0.5546875,-0.013671875,-0.064453125,-0.0390625,0.640625,0.23736572265625,0.14434814453125,0.71588134765625,88.05079866429978,5.759190162807374,-12.595885683659573
402,16.120057565000025,bno085,-1.51171875,9.61328125,0.5546875,-0.013671875,-0.064453125,-0.0390625,0.64031982421875,0.23699951171875,0.1424560546875,0.716552734375,87.99443134286706,5.900232952854362,-12.788359153872664
403,16.16005833000054,bno085,-1.55078125,9.69140625,0.5546875,0.078125,-0.0703125,-0.0859375,0.64141845703125,0.2371826171875,0.1395263671875,0.71612548828125,88.17935931349469,6.110559057447514,-13.00123685382323
404,16.20005694700012,bno085,-1.55078125,9.765625,0.515625,0.234375,-0.009765625,-0.166015625,0.644775390625,0.2396240234375,0.13568115234375,0.71307373046875,88.8193837101799,6.464143921266123,-13.062066190094377
405,16.24005778600076,bno085,-1.55078125,9.3828125,0.25,0.244140625,0.07421875,0.0078125,0.644775390625,0.2396240234375,0.13568115234375,0.71307373046875,88.8193837101799,6.464143921266123,-13.062066190094377
406,16.280056885001613,bno085,-1.55078125,9.76953125,0.1328125,0.193359375,0.044921875,0.185546875,0.64910888671875,0.2415771484375,0.13507080078125,0.70855712890625,89.57144752809914,6.471428133906686,-12.89108408462537
407,16.32005842700164,bno085,-1.62890625,9.609375,0.25,0.193359375,0.044921875,0.185546875,0.6533203125,0.24017333984375,0.13751220703125,0.70465087890625,90.12421936438356,5.991922164330593,-12.779962407909553
408,16.360059563001414,bno085,-1.62890625,9.6484375,0.25,0.0703125,0.01953125,0.287109375,0.6561279296875,0.23675537109375,0.141845703125,0.702392578125,90.35768162731814,5.273138319358704,-12.713963123161447
409,16.400056550000954,bno085,-1.4375,9.4921875,0.25,0.001953125,0.029296875,0.25,0.6575927734375,0.23297119140625,0.14654541015625,0.7012939453125,90.37119615596518,4.552340772808572,-12.66477501697365
410,16.440058167001553,bno085,-1.28515625,9.19140625,0.25,0.005859375,-0.001953125,0.123046875,0.6575927734375,0.23297119140625,0.14654541015625,0.7012939453125,90.37119615596518,4.552340772808572,-12.66477501697365
411,16.480059395000353,bno085,-1.24609375,9.421875,0.2109375,-0.044921875,-0.0078125,0.001953125,0.65826416015625,0.23065185546875,0.14892578125,0.70098876953125,90.34948390696802,4.16347129065696,-12.674891280268463
412,16.520057994001036,bno085,-1.24609375,9.46484375,0.1328125,-0.044921875,-0.0078125,0.001953125,0.65753173828125,0.22979736328125,0.1492919921875,0.7017822265625,90.19520496300429,4.1024752541153156,-12.72882434389698
413,16.560060833000534,bno085,-1.3203125,9.609375,0.25,-0.080078125,-0.01953125,-0.068359375,0.656005859375,0.23004150390625,0.1484375,0.703369140625,89.97998341020063,4.257173509189402,-12.786695031511009
414,16.6000590980002,bno085,-1.3203125,9.6484375,0.25,-0.150390625,-0.001953125,-0.0546875,0.6533203125,0.23028564453125,0.14813232421875,0.705810546875,89.58739301376885,4.412254431288464,-12.810893554199078
415,16.640058270000736,bno085,-1.359375,9.5703125,0.40234375,-0.173828125,-0.01953125,-0.0390625,0.6533203125,0.23028564453125,0.14813232421875,0.705810546875,89.58739301376885,4.412254431288464,-12.810893554199078
416,16.68005729500146,bno085,-1.3984375,9.953125,0.515625,-0.212890625,-0.0625,-0.064453125,0.65008544921875,0.22998046875,0.1480712890625,0.70892333984375,89.08626933898164,4.531945108181034,-12.868081963006754
417,16.720056949001446,bno085,-1.3984375,9.4921875,0.515625,-0.212890625,-0.0625,-0.064453125,0.64642333984375,0.22906494140625,0.14752197265625,0.712646484375,88.49578128589377,4.664756403935444,-13.023816334205605
418,16.76005739900029,bno085,-1.4375,9.6875,0.671875,-0.060546875,-0.044921875,-0.046875,0.64483642578125,0.22845458984375,0.14599609375,0.71466064453125,88.23634815267339,4.814611645566257,-13.214832451706203
419,16.800058572000125,bno085,-1.4765625,9.73046875,0.59375,-0.0390625,-0.048828125,0.056640625,0.644775390625,0.2265625,0.1458740234375,0.71533203125,88.13771965465186,4.691938600832195,-13.392615494531281
420,16.84005665100085,bno085,-1.28515625,9.46484375,0.59375,0.056640625,-0.126953125,0.12890625,0.644775390625,0.2265625,0.1458740234375,0.71533203125,88.13771965465186,4.691938600832195,-13.392615494531281
421,16.880062268000984,bno085,-1.09375,9.65234375,0.44140625,-0.1328125,-0.16015625,0.12890625,0.64691162109375,0.22235107421875,0.14593505859375,0.7147216796875,88.25933459028784,4.298987233581675,-13.741654532840622
422,16.920059885000228,bno085,-0.9765625,9.69140625,0.40234375,-0.1328125,-0.16015625,0.12890625,0.64581298828125,0.21710205078125,0.14630126953125,0.71722412109375,87.8532738651609,3.934640644273165,-14.179855367454829
423,16.960059299000932,bno085,-0.86328125,9.57421875,0.59375,-0.361328125,-0.0234375,0.185546875,0.64056396484375,0.21240234375,0.14996337890625,0.7225341796875,86.8476140788535,3.4984744618614783,-14.320645103862372
424,17.00005823000174,bno085,-1.015625,10.15234375,0.74609375,-0.6875,0.01171875,0.0390625,0.6279296875,0.208984375,0.15478515625,0.7335205078125,84.82073601416047,3.346566018615899,-14.288839963797997
425,17.040058218000922,bno085,-0.9765625,9.34765625,1.08984375,-1.25390625,0.166015625,0.07421875,0.6279296875,0.208984375,0.15478515625,0.7335205078125,84.82073601416047,3.346566018615899,-14.288839963797997
426,17.08005752000099,bno085,-1.015625,9.19140625,2.05078125,-1.095703125,0.29296875,-0.25,0.605224609375,0.20574951171875,0.16387939453125,0.7513427734375,81.37677014521955,3.253334944183004,-13.915321157240713
427,17.1200574150007,bno085,-1.16796875,9.1875,2.5078125,-1.095703125,0.29296875,-0.25,0.58331298828125,0.20904541015625,0.16900634765625,0.7664794921875,78.41789723531731,3.954006837035802,-13.333968612966283
428,17.160057476001384,bno085,-1.12890625,8.9609375,2.5078125,-0.71875,0.080078125,-0.2578125,0.56622314453125,0.211181640625,0.1705322265625,0.77825927734375,76.14640379292497,4.658854770804245,-13.146568491974351
429,17.200060426001073,bno085,-1.51171875,9.3046875,2.890625,-0.578125,0.08984375,0.451171875,0.55560302734375,0.20550537109375,0.18194580078125,0.7847900390625,74.4245172343174,3.762011229997747,-12.617677235871303
430,17.240058710000085,bno085,-1.015625,8.234375,2.890625,-1.052734375,0.119140625,0.0,0.55560302734375,0.20550537109375,0.18194580078125,0.7847900390625,74.4245172343174,3.762011229997747,-12.617677235871303
431,17.280057234000196,bno085,-1.015625,9.0,3.19921875,-1.703125,-0.1328125,-0.0625,0.53564453125,0.20135498046875,0.191162109375,0.7974853515625,71.54727091124398,3.5162227756798163,-12.194009991409164
432,17.320057592000012,bno085,-1.16796875,8.15625,3.8125,-1.703125,-0.1328125,-0.0625,0.5029296875,0.1932373046875,0.19696044921875,0.819091796875,66.9041772853025,3.643691798321874,-12.422343332203324
433,17.360057450001477,bno085,-1.16796875,8.15625,3.8125,-2.248046875,0.326171875,0.458984375,0.45947265625,0.183837890625,0.21734619140625,0.84130859375,60.943444606962345,3.09652498303758,-11.283625327204366
434,17.40005669600032,bno085,-1.0546875,8.38671875,5.6484375,-2.4296875,0.611328125,0.154296875,0.40728759765625,0.17828369140625,0.239013671875,0.86322021484375,54.24834071494385,3.248375236484343,-9.667991809934751
435,17.440057239000453,bno085,-0.78515625,6.96875,5.765625,-2.208984375,0.478515625,-0.306640625,0.40728759765625,0.17828369140625,0.239013671875,0.86322021484375,54.24834071494385,3.248375236484343,-9.667991809934751
436,17.48005730100158,bno085,-1.359375,7.16015625,7.1796875,-1.685546875,0.1875,0.125,0.35516357421875,0.17803955078125,0.24853515625,0.8834228515625,47.9971348217496,4.667309753086681,-8.963184779854794
437,17.520056973000464,bno085,-1.24609375,5.8984375,6.953125,-1.685546875,0.1875,0.125,0.31561279296875,0.1708984375,0.25970458984375,0.89654541015625,43.076315021179184,4.909130893312063,-8.370762126592274
438,17.560057868000513,bno085,-1.0546875,6.05078125,7.8671875,-1.458984375,0.11328125,0.115234375,0.282470703125,0.162353515625,0.269775390625,0.9061279296875,38.91252189935723,4.855301064763452,-7.875067804494491
439,17.60005904100035,bno085,-1.09375,5.28515625,7.5234375,-1.06640625,-0.14453125,0.212890625,0.25775146484375,0.14947509765625,0.277587890625,0.913330078125,35.581585127660965,4.163636375764717,-7.714835653030339
440,17.640059545999975,bno085,-0.86328125,5.28515625,8.29296875,-0.859375,-0.2734375,0.267578125,0.25775146484375,0.14947509765625,0.277587890625,0.913330078125,35.581585127660965,4.163636375764717,-7.714835653030339
441,17.680057497000234,bno085,-0.671875,4.515625,7.8671875,-0.833984375,-0.53125,0.142578125,0.240234375,0.13507080078125,0.28521728515625,0.91796875,33.032906628406295,3.0613793403077754,-7.527734728749485
442,17.720060966001256,bno085,-0.78515625,4.671875,8.3671875,-0.833984375,-0.53125,0.142578125,0.22412109375,0.1162109375,0.2901611328125,0.923095703125,30.496759869786043,1.543238633815081,-7.733995512251869
443,17.760058342000775,bno085,-0.5546875,4.25,8.8671875,-1.0,-0.091796875,0.4140625,0.203857421875,0.10345458984375,0.3009033203125,0.92584228515625,27.728176376623274,0.6254171503013892,-6.984289779223067
444,17.800058848000845,bno085,-0.36328125,3.828125,9.29296875,-1.154296875,-0.080078125,0.060546875,0.1790771484375,0.0916748046875,0.30621337890625,0.93048095703125,24.523640190038574,0.16313141926729804,-6.780819605049215
445,17.840059150001252,bno085,-0.515625,3.484375,9.2890625,-1.36328125,0.0703125,-0.04296875,0.1790771484375,0.0916748046875,0.30621337890625,0.93048095703125,24.523640190038574,0.16313141926729804,-6.780819605049215
446,17.880061971000032,bno085,-0.2109375,2.6796875,9.59765625,-1.42578125,-0.10546875,0.0546875,0.14697265625,0.081298828125,0.30865478515625,0.93621826171875,20.591100387197255,0.19735100802934022,-6.839104704411325
447,17.920059328000207,bno085,-0.01953125,1.9140625,9.67578125,-1.42578125,-0.10546875,0.0546875,0.11456298828125,0.06787109375,0.312255859375,0.94061279296875,16.530858821418345,-0.1122870517574146,-6.7792969698576
448,17.96005903800142,bno085,0.01953125,1.64453125,9.78515625,-1.208984375,-0.28515625,-0.01171875,0.0872802734375,0.0518798828125,0.3138427734375,0.94403076171875,12.961480417333858,-0.8524586852365769,-6.925587146545152
449,18.000057488001403,bno085,0.01953125,1.68359375,9.9765625,-1.185546875,-0.25390625,-0.060546875,0.0618896484375,0.03759765625,0.31427001953125,0.94659423828125,9.676483802611086,-1.4721654984679124,-7.103110510035121
450,18.04005777200109,bno085,0.171875,0.87890625,10.01953125,-1.064453125,-0.087890625,0.083984375,0.0618896484375,0.03759765625,0.31427001953125,0.94659423828125,9.676483802611086,-1.4721654984679124,-7.103110510035121
451,18.080058370000188,bno085,0.25,0.80078125,10.28515625,-0.810546875,-0.009765625,-0.0234375,0.0374755859375,0.02655029296875,0.31707763671875,0.947265625,6.606761819519648,-1.8071247914811748,-6.897951077613831
452,18.120056599000236,bno085,0.1328125,0.265625,9.9375,-0.810546875,-0.009765625,-0.0234375,0.017822265625,0.01971435546875,0.3172607421875,0.94793701171875,4.222589992537363,-1.832890205556389,-6.936026649174169
453,18.16005780800151,bno085,0.01953125,0.1875,10.44140625,-0.509765625,0.037109375,-0.265625,0.00457763671875,0.01641845703125,0.31341552734375,0.949462890625,2.6846121349602763,-1.6910000411748511,-7.4230872396471925
454,18.20005711000158,bno085,-0.05859375,0.03515625,9.94140625,-0.337890625,0.17578125,-0.046875,-0.005615234375,0.0172119140625,0.31280517578125,0.94964599609375,1.6070761204920347,-1.2361100238859344,-7.498614271761014
455,18.240058524001142,bno085,0.25,-0.1171875,9.98046875,-0.4453125,0.1484375,-0.08984375,-0.005615234375,0.0172119140625,0.31280517578125,0.94964599609375,1.6070761204920347,-1.2361100238859344,-7.498614271761014
456,18.280056215000513,bno085,-0.171875,-0.84375,10.28515625,-0.205078125,0.158203125,-0.10546875,-0.01702880859375,0.0177001953125,0.3114013671875,0.949951171875,0.3886290858886343,-0.770401353082343,-7.677176476502748
457,18.320058554001662,bno085,-0.2109375,-0.6171875,9.75390625,-0.205078125,0.158203125,-0.10546875,-0.023681640625,0.0191650390625,0.30963134765625,0.95037841796875,-0.27683525654984503,-0.37069960282725606,-7.894087662773583
458,18.36005924500023,bno085,-0.171875,-0.38671875,9.75390625,-0.0078125,0.025390625,-0.05859375,-0.02362060546875,0.02008056640625,0.30841064453125,0.95074462890625,-0.23313571781698444,-0.2713246317664963,-8.038699033721173
459,18.400057973000003,bno085,-0.09765625,-0.65234375,10.1328125,0.14453125,-0.00390625,-0.056640625,-0.020751953125,0.0208740234375,0.3079833984375,0.950927734375,0.10916530090651018,-0.28558844384383886,-8.083288368569983
460,18.440057405001426,bno085,-0.171875,-0.4609375,10.1328125,0.220703125,0.00390625,0.03125,-0.020751953125,0.0208740234375,0.3079833984375,0.950927734375,0.10916530090651018,-0.28558844384383886,-8.083288368569983
461,18.480059522000374,bno085,-0.09765625,-0.26953125,10.05859375,0.125,0.00390625,0.021484375,-0.01654052734375,0.02227783203125,0.30908203125,0.95062255859375,0.6135506002326131,-0.28403712943608517,-7.939336553975817
462,18.52005815800112,bno085,-0.171875,-0.42578125,9.8203125,0.125,0.00390625,0.021484375,-0.01348876953125,0.0233154296875,0.3094482421875,0.9505615234375,0.9812706744572542,-0.28026132675360327,-7.885235920376569
463,18.560057164000682,bno085,-0.1328125,-0.42578125,9.94140625,0.052734375,0.00390625,0.0,-0.0115966796875,0.0240478515625,0.31109619140625,0.95001220703125,1.2071722145043198,-0.2726241134934887,-7.681035968162306
464,18.60005778100094,bno085,-0.171875,-0.1953125,10.171875,0.060546875,0.01171875,0.048828125,-0.010009765625,0.02459716796875,0.31292724609375,0.94940185546875,1.3926209880453773,-0.2753137760305752,-7.455664599498537
465,18.640060342000652,bno085,-0.1328125,-0.15625,9.94140625,0.005859375,-0.001953125,0.009765625,-0.010009765625,0.02459716796875,0.31292724609375,0.94940185546875,1.3926209880453773,-0.2753137760305752,-7.455664599498537
466,18.68005990400161,bno085,-0.09765625,-0.30859375,9.9765625,0.05078125,-0.00390625,0.025390625,-0.0096435546875,0.02447509765625,0.31414794921875,0.948974609375,1.4235110620270088,-0.3056590951365342,-7.30935247113344
467,18.720057854001425,bno085,-0.1328125,-0.15625,10.09765625,0.05078125,-0.00390625,0.025390625,-0.008544921875,0.0247802734375,0.31524658203125,0.94866943359375,1.5496341571303158,-0.31570092213502154,-7.172011598833938
468,18.760057360001156,bno085,-0.1328125,-0.34765625,9.86328125,-0.025390625,-0.005859375,-0.025390625,-0.00885009765625,0.0244140625,0.3167724609375,0.9481201171875,1.4974488193779345,-0.3494409264610274,-6.99144749965776
469,18.800056977001077,bno085,-0.1328125,-0.26953125,10.203125,0.04296875,-0.017578125,0.005859375,-0.00787353515625,0.02410888671875,0.31915283203125,0.9473876953125,1.582974484355106,-0.4259925749777756,-6.702506951102403
470,18.84005835300013,bno085,-0.09765625,-0.1953125,10.09765625,-0.0078125,-0.001953125,0.0,-0.00787353515625,0.02410888671875,0.31915283203125,0.9473876953125,1.582974484355106,-0.4259925749777756,-6.702506951102403
471,18.88006095200035,bno085,-0.09765625,-0.26953125,9.9765625,0.009765625,-0.015625,0.01953125,-0.00787353515625,0.02374267578125,0.32037353515625,0.94696044921875,1.5647545018006712,-0.46977379796181207,-6.557437829147553
472,18.920061328000884,bno085,-0.09765625,-0.15625,10.05859375,0.009765625,-0.015625,0.01953125,-0.00750732421875,0.02337646484375,0.3211669921875,0.94671630859375,1.587811449212436,-0.525593072062738,-6.462374367023501
473,18.960057630001756,bno085,-0.09765625,-0.1953125,9.98046875,0.013671875,-0.013671875,-0.009765625,-0.00714111328125,0.0228271484375,0.32269287109375,0.94622802734375,1.6009776169213492,-0.6037290158781325,-6.279497353518814
474,19.000057747000028,bno085,-0.05859375,-0.234375,10.13671875,0.041015625,-0.0078125,0.03515625,-0.00634765625,0.02239990234375,0.32635498046875,0.9449462890625,1.6556924654030716,-0.6917711749749718,-5.838303051703866
475,19.040060309000182,bno085,-0.01953125,-0.1953125,9.9765625,0.0625,0.013671875,-0.01953125,-0.00634765625,0.02239990234375,0.32635498046875,0.9449462890625,1.6556924654030716,-0.6917711749749718,-5.838303051703866
476,19.08006022200061,bno085,-0.09765625,-0.00390625,9.98046875,-0.056640625,0.025390625,0.078125,-0.0052490234375,0.022705078125,0.32818603515625,0.9443359375,1.7781227343956911,-0.7062423122296179,-5.6128341484066215
477,19.12005735800085,bno085,-0.05859375,-0.234375,9.98046875,-0.056640625,0.025390625,0.078125,-0.00628662109375,0.02264404296875,0.33087158203125,0.94342041015625,1.6520118195723819,-0.6826689730403606,-5.287843943116647
478,19.16005495600075,bno085,-0.1328125,-0.38671875,10.05859375,-0.044921875,-0.009765625,0.009765625,-0.007568359375,0.021484375,0.33355712890625,0.94244384765625,1.4578948598213866,-0.767673753559366,-4.970073646081268
479,19.20005831400158,bno085,-0.09765625,-0.04296875,10.0546875,-0.06640625,-0.033203125,0.00390625,-0.0086669921875,0.01983642578125,0.33563232421875,0.9417724609375,1.266879404569372,-0.9095382449107265,-4.725057065891034
480,19.240057801000148,bno085,-0.05859375,-0.234375,9.82421875,-0.05078125,-0.03515625,0.013671875,-0.0086669921875,0.01983642578125,0.33563232421875,0.9417724609375,1.266879404569372,-0.9095382449107265,-4.725057065891034
481,19.280057048001254,bno085,-0.01953125,-0.1953125,10.09375,-0.013671875,-0.05859375,-0.013671875,-0.0096435546875,0.0181884765625,0.3375244140625,0.94110107421875,1.0893864475213932,-1.0548239111736817,-4.503088521270138
482,19.320059980000224,bno085,-0.01953125,-0.15625,9.94140625,-0.013671875,-0.05859375,-0.013671875,-0.00946044921875,0.0166015625,0.338134765625,0.94091796875,1.0448980997562045,-1.234631450532847,-4.434549271597074
483,19.360058690001097,bno085,-0.05859375,-0.26953125,10.015625,0.0,-0.0546875,-0.0234375,-0.0093994140625,0.01470947265625,0.33905029296875,0.94061279296875,0.9736726448292885,-1.443302462455626,-4.330110924079791
484,19.400057177001145,bno085,0.01953125,-0.1953125,10.01953125,0.0,-0.060546875,0.001953125,-0.009033203125,0.012939453125,0.34051513671875,0.94012451171875,0.9366811209481537,-1.6519643987266048,-4.1571456424173805
485,19.44006129400077,bno085,0.05859375,-0.1953125,10.01953125,-0.0625,-0.044921875,0.001953125,-0.009033203125,0.012939453125,0.34051513671875,0.94012451171875,0.9366811209481537,-1.6519643987266048,-4.1571456424173805
486,19.480059115001495,bno085,0.09375,-0.34765625,10.01953125,-0.037109375,-0.076171875,0.0,-0.00982666015625,0.0107421875,0.343017578125,0.939208984375,0.7517500095603629,-1.8633724521007289,-3.859962497295588
487,19.520055769000464,bno085,0.05859375,-0.34765625,10.01953125,-0.037109375,-0.076171875,0.0,-0.0101318359375,0.00860595703125,0.34381103515625,0.93896484375,0.6304676538115332,-2.0829925636908757,-3.7684465161716996
488,19.560057164000682,bno085,0.171875,-0.26953125,10.09375,0.0078125,-0.080078125,-0.048828125,-0.00970458984375,0.00628662109375,0.34393310546875,0.93890380859375,0.5846611172480614,-2.34955008771809,-3.760725686553065
489,19.600058003001323,bno085,0.171875,-0.30859375,10.1328125,-0.064453125,-0.130859375,0.01171875,-0.0103759765625,0.002197265625,0.34613037109375,0.9381103515625,0.3371881170641714,-2.767042873693935,-3.5009564035953193
490,19.64005795400044,bno085,0.171875,-0.38671875,9.94140625,-0.087890625,-0.162109375,0.05078125,-0.0103759765625,0.002197265625,0.34613037109375,0.9381103515625,0.3371881170641714,-2.767042873693935,-3.5009564035953193
491,19.680057608000425,bno085,0.28515625,-0.26953125,10.09765625,-0.12890625,-0.171875,0.00390625,-0.0113525390625,-0.0029296875,0.34954833984375,0.93682861328125,0.004772869114496368,-3.2844260514210206,-3.0900086125081483
492,19.72005704000003,bno085,0.28515625,-0.30859375,9.75390625,-0.12890625,-0.171875,0.00390625,-0.01239013671875,-0.00775146484375,0.3505859375,0.9364013671875,-0.3075965936165479,-3.7616686136785784,-2.96584708193296
493,19.76005645300029,bno085,0.36328125,-0.578125,9.98046875,-0.173828125,-0.177734375,0.072265625,-0.0147705078125,-0.0135498046875,0.3543701171875,0.93487548828125,-0.8276154017852458,-4.2903618471500415,-2.4981683676324455
494,19.80005545900167,bno085,0.44140625,-0.5390625,10.05859375,-0.072265625,-0.138671875,0.05859375,-0.0157470703125,-0.01800537109375,0.35662841796875,0.9339599609375,-1.1336193905878602,-4.728714700150871,-2.2141891315852695
495,19.84005657600028,bno085,0.44140625,-0.69140625,9.8984375,0.0078125,-0.068359375,0.060546875,-0.0157470703125,-0.01800537109375,0.35662841796875,0.9339599609375,-1.1336193905878602,-4.728714700150871,-2.2141891315852695
496,19.88005597100164,bno085,0.515625,-0.65234375,10.17578125,-0.033203125,-0.08203125,-0.013671875,-0.015380859375,-0.0203857421875,0.35931396484375,0.932861328125,-1.2162558218116775,-4.998631406721138,-1.8819697588413293
497,19.920057033001285,bno085,0.48046875,-0.5390625,10.09375,-0.033203125,-0.08203125,-0.013671875,-0.0146484375,-0.02239990234375,0.3602294921875,0.9324951171875,-1.2297021701216542,-5.244347988185874,-1.7670255337191079
498,19.96005709400015,bno085,0.59375,-0.65234375,10.09765625,0.052734375,-0.0703125,0.056640625,-0.01312255859375,-0.02398681640625,0.36279296875,0.93145751953125,-1.156667830599306,-5.477183965386683,-1.4524607769618987
499,20.000056452001445,bno085,0.5546875,-0.5,10.09375,0.04296875,-0.091796875,-0.001953125,-0.0115966796875,-0.02557373046875,0.364501953125,0.9307861328125,-1.0766360090781286,-5.71053202359106,-1.2418254683275094
500,20.040057513000647,bno085,0.59375,-0.578125,9.94140625,0.03125,-0.052734375,0.072265625,-0.0115966796875,-0.02557373046875,0.364501953125,0.9307861328125,-1.0766360090781286,-5.71053202359106,-1.2418254683275094
501,20.08005794500059,bno085,0.671875,-0.4609375,10.05859375,-0.03125,-0.052734375,-0.01953125,-0.0106201171875,-0.0267333984375,0.36663818359375,0.929931640625,-1.0424402426292376,-5.87557946086432,-0.9778186584708121
502,20.120057637001082,bno085,0.6328125,-0.84375,9.859375,-0.03125,-0.052734375,-0.01953125,-0.01025390625,-0.02825927734375,0.367431640625,0.9295654296875,-1.0759186811914587,-6.0537369255260005,-0.8778761991106164
503,20.16005756800041,bno085,0.671875,-0.65234375,9.9765625,0.109375,-0.107421875,0.12109375,-0.0076904296875,-0.03009033203125,0.37060546875,0.92828369140625,-0.9133464022218838,-6.358025456629379,-0.4877965024332605
504,20.20005744500122,bno085,0.671875,-0.80859375,9.90234375,-0.013671875,-0.115234375,0.076171875,-0.00677490234375,-0.032958984375,0.373291015625,0.9271240234375,-0.9679475003322847,-6.703036561773429,-0.1501203738195107
505,20.240058136001608,bno085,0.59375,-0.921875,9.86328125,-0.037109375,-0.259765625,0.248046875,-0.00677490234375,-0.032958984375,0.373291015625,0.9271240234375,-0.9679475003322847,-6.703036561773429,-0.1501203738195107
506,20.28005727100026,bno085,0.671875,-0.38671875,10.0546875,-0.294921875,-0.474609375,-0.140625,-0.00714111328125,-0.03948974609375,0.3792724609375,0.9244384765625,-1.35970519083507,-7.3807407925554225,0.6165318633666385
507,20.320057444001577,bno085,0.6328125,-0.65234375,10.015625,-0.294921875,-0.474609375,-0.140625,-0.00830078125,-0.05218505859375,0.37799072265625,0.92431640625,-2.026454452873268,-8.678071811635022,0.5176582768922894
508,20.360057709000102,bno085,0.8984375,-0.65234375,10.3203125,-0.0859375,-0.59765625,-0.138671875,-0.00506591796875,-0.06695556640625,0.3765869140625,0.9239501953125,-2.3152214736857895,-10.388502150204564,0.41394267299079646
509,20.400057123000806,bno085,1.20703125,-1.0,10.625,0.056640625,-0.802734375,-0.201171875,0.0040283203125,-0.08447265625,0.3741455078125,0.92352294921875,-2.0797395694571423,-12.648437563295094,0.1764815347305094
510,20.440057147001426,bno085,1.359375,-0.921875,10.78125,0.037109375,-1.125,-0.33203125,0.0040283203125,-0.08447265625,0.3741455078125,0.92352294921875,-2.0797395694571423,-12.648437563295094,0.1764815347305094
511,20.480056635000437,bno085,2.31640625,-0.8828125,10.203125,-0.5078125,-1.46875,-0.80859375,0.01580810546875,-0.1097412109375,0.3675537109375,0.92333984375,-1.8059447960777586,-15.856857202202882,-0.5324698715187361
512,20.520057141000507,bno085,3.046875,-1.7265625,9.3984375,-0.5078125,-1.46875,-0.80859375,0.02197265625,-0.14300537109375,0.35296630859375,0.92437744140625,-2.2696379324736395,-19.705930405834852,-2.0728359722227325
513,20.56005679500049,bno085,3.19921875,-0.15625,9.44140625,-0.205078125,-1.60546875,-0.609375,0.03631591796875,-0.17791748046875,0.33892822265625,0.923095703125,-1.8150156522183758,-24.094832641743476,-3.6123569344712116
514,20.600057616000413,bno085,3.3515625,-0.078125,9.59375,0.353515625,-1.302734375,-0.673828125,0.0576171875,-0.20379638671875,0.322509765625,0.92254638671875,0.06780616753175826,-27.77128141629111,-5.820912915542831
515,20.640058733000842,bno085,4.234375,-0.15625,9.48046875,0.51953125,-1.17578125,-0.505859375,0.08221435546875,-0.22564697265625,0.3121337890625,0.919189453125,2.4753834790598033,-31.10753083998526,-7.515179352712783
516,20.680060165001123,bno085,4.65234375,-0.078125,9.0546875,0.69140625,-1.482421875,-0.068359375,0.08221435546875,-0.22564697265625,0.3121337890625,0.919189453125,2.4753834790598033,-31.10753083998526,-7.515179352712783
517,20.720057653001277,bno085,5.19140625,-0.15625,9.05859375,0.69140625,-1.482421875,-0.068359375,0.10797119140625,-0.25506591796875,0.30975341796875,0.9095458984375,4.5315473508022635,-35.372113593484116,-8.183468581072095
518,20.76005738100139,bno085,5.99609375,0.03515625,7.37890625,0.62109375,-1.853515625,0.0546875,0.13543701171875,-0.29150390625,0.3077392578125,0.8955078125,6.663691772599387,-40.551539497616034,-8.907477272511459
519,20.800057868000295,bno085,6.453125,0.41796875,7.98828125,0.84765625,-1.779296875,0.2265625,0.16473388671875,-0.32867431640625,0.31170654296875,0.87615966796875,8.843334093109283,-46.029951431330325,-8.977199418273166
520,20.840058467001654,bno085,6.41796875,1.03125,7.0625,0.185546875,-1.798828125,0.4296875,0.16473388671875,-0.32867431640625,0.31170654296875,0.87615966796875,8.843334093109283,-46.029951431330325,-8.977199418273166
521,20.88005793600132,bno085,6.41796875,1.18359375,5.3046875,-0.47265625,-2.12890625,0.240234375,0.18060302734375,-0.36810302734375,0.31280517578125,0.85675048828125,9.308676290299804,-51.35220906327454,-8.806784876259899
522,20.92005973800042,bno085,7.4453125,0.87890625,5.07421875,-0.47265625,-2.12890625,0.240234375,0.1881103515625,-0.415771484375,0.30230712890625,0.83685302734375,9.164480602672676,-57.33854201862405,-9.865253896815842
523,20.960056763000466,bno085,7.9453125,0.45703125,5.07421875,-0.55859375,-1.794921875,0.115234375,0.1875,-0.45849609375,0.29046630859375,0.81866455078125,8.03605535655806,-62.54603005479618,-10.540256876750128
524,21.00005741700079,bno085,8.44921875,0.3046875,4.9609375,-0.4375,-1.453125,0.087890625,0.18695068359375,-0.49298095703125,0.28009033203125,0.80224609375,7.126183162669556,-66.8608199039121,-11.067821178546803
525,21.040057719001197,bno085,8.91015625,0.07421875,4.00390625,-0.408203125,-1.51953125,0.01171875,0.18719482421875,-0.52691650390625,0.2669677734375,0.784912109375,6.927021334136137,-71.2253555163139,-12.391458502196466
526,21.080058281000674,bno085,8.90625,-0.15625,3.12109375,-0.259765625,-1.798828125,0.16015625,0.18719482421875,-0.52691650390625,0.2669677734375,0.784912109375,6.927021334136137,-71.2253555163139,-12.391458502196466
527,21.120057361000363,bno085,9.25390625,-0.69140625,3.58203125,-0.259765625,-1.798828125,0.16015625,0.1873779296875,-0.56561279296875,0.25701904296875,0.7608642578125,5.302604178597341,-76.41741577959269,-12.009672849180507
528,21.160058071000094,bno085,9.4765625,-0.26953125,2.5078125,-0.353515625,-1.33984375,0.580078125,0.18157958984375,-0.59912109375,0.25482177734375,0.73699951171875,-3.458791199488117,-80.79957980268918,-4.220512760997151
529,21.200056966001284,bno085,9.51953125,-0.80859375,1.78125,0.703125,-1.734375,-0.486328125,0.208251953125,-0.623779296875,0.2503662109375,0.7105712890625,7.419304179679393,-85.55217268004614,-13.352796062121833
530,21.240058546,bno085,9.55859375,-0.15625,2.203125,0.205078125,-2.208984375,-0.34375,0.2384033203125,-0.654052734375,0.23663330078125,0.67779541015625,126.19249866358405,-87.2513509215008,-130.86837274310875
531,21.28005686600045,bno085,8.83203125,0.41796875,0.2109375,1.044921875,-1.693359375,-0.17578125,0.2384033203125,-0.654052734375,0.23663330078125,0.67779541015625,126.19249866358405,-87.2513509215008,-130.86837274310875
532,21.32005794700126,bno085,9.71484375,0.49609375,1.08984375,-0.546875,-0.994140625,0.17578125,0.26318359375,-0.67913818359375,0.23114013671875,0.64501953125,157.94920436727622,-82.53106741701784,-160.97232888297398
533,21.360058008000124,bno085,10.44140625,0.1875,-1.70703125,-0.546875,-0.994140625,0.17578125,0.2637939453125,-0.6982421875,0.22119140625,0.62762451171875,165.03819795635292,-79.68206410042579,-168.86475711321458
534,21.400058829000045,bno085,11.625,0.11328125,-1.3203125,-0.302734375,-0.34375,-0.244140625,0.26531982421875,-0.70086669921875,0.21234130859375,0.62713623046875,161.80701069265513,-78.97816942167026,-166.24320248139202
535,21.44005807600115,bno085,10.703125,0.83984375,-0.7109375,-0.140625,-0.025390625,-0.306640625,0.2679443359375,-0.700439453125,0.2066650390625,0.62835693359375,158.544948171125,-78.65476803529639,-163.21189380175366
536,21.480058508001093,bno085,9.09375,0.1875,-2.125,-0.2734375,-0.1640625,-0.2109375,0.2679443359375,-0.700439453125,0.2066650390625,0.62835693359375,158.544948171125,-78.65476803529639,-163.21189380175366
537,21.520058292000613,bno085,9.671875,0.7265625,-1.4375,-0.306640625,-0.0546875,0.044921875,0.2674560546875,-0.7022705078125,0.19915771484375,0.6290283203125,156.3333662493084,-78.19834788023837,-161.68362743246536
538,21.560058298000513,bno085,9.9765625,0.6484375,-1.3203125,-0.306640625,-0.0546875,0.044921875,0.26226806640625,-0.7042236328125,0.19390869140625,0.630615234375,155.81766138636968,-78.17632573254114,-162.05784895103497
539,21.6000588220013,bno085,9.94140625,0.6875,-1.3203125,-0.1484375,-0.001953125,-0.0078125,0.2591552734375,-0.705078125,0.1910400390625,0.6318359375,155.45399286799122,-78.21090014953418,-162.21155103554355
540,21.640059458000906,bno085,9.7109375,0.609375,-1.51171875,-0.021484375,0.02734375,-0.095703125,0.2596435546875,-0.70440673828125,0.18951416015625,0.63287353515625,154.3647718769959,-78.1965465484471,-161.2093836944763
541,21.680059168000298,bno085,9.859375,0.76171875,-1.51171875,0.029296875,0.041015625,-0.134765625,0.2596435546875,-0.70440673828125,0.18951416015625,0.63287353515625,154.3647718769959,-78.1965465484471,-161.2093836944763
542,21.72005789600007,bno085,10.13671875,0.83984375,-1.3203125,0.080078125,0.072265625,-0.001953125,0.26220703125,-0.7025146484375,0.18829345703125,0.63427734375,152.47775201692724,-78.16763142615677,-159.1920569967193
543,21.760057661000246,bno085,10.0546875,0.87890625,-1.20703125,0.080078125,0.072265625,-0.001953125,0.26275634765625,-0.70098876953125,0.189697265625,0.63531494140625,152.08396566319084,-78.3619948166273,-158.63138790354483
544,21.80005757500112,bno085,10.09375,0.83984375,-1.015625,-0.04296875,0.00390625,0.0703125,0.26123046875,-0.70123291015625,0.19073486328125,0.63531494140625,152.82639319277098,-78.50139327169153,-159.41611531476013
545,21.840057377001358,bno085,9.86328125,0.6484375,-1.12890625,-0.0390625,-0.0859375,0.001953125,0.26123046875,-0.70123291015625,0.19073486328125,0.63531494140625,152.82639319277098,-78.50139327169153,-159.41611531476013
546,21.880061254001703,bno085,9.9375,0.6484375,-0.9765625,-0.041015625,-0.14453125,-0.0625,0.26068115234375,-0.702392578125,0.18988037109375,0.63458251953125,153.21667071898727,-78.3722417492651,-159.93833917676054
547,21.920057519000693,bno085,9.86328125,0.6484375,-1.3203125,-0.05078125,-0.23046875,-0.103515625,0.26141357421875,-0.704345703125,0.187255859375,0.6328125,153.21778129921796,-77.97018205555666,-160.0790498392694
548,21.960057840000445,bno085,9.82421875,0.7265625,-1.24609375,-0.05078125,-0.23046875,-0.103515625,0.26348876953125,-0.70733642578125,0.18365478515625,0.62969970703125,153.2779015514856,-77.29129309748804,-160.25912078942906
549,22.000058772000557,bno085,9.6328125,0.953125,-2.01171875,0.177734375,-0.044921875,-0.001953125,0.26739501953125,-0.707275390625,0.18408203125,0.62799072265625,153.06491812551047,-76.9964120634725,-159.66128753855102
550,22.04005848199995,bno085,10.01953125,0.80078125,-1.97265625,0.21484375,0.564453125,-0.26953125,0.27203369140625,-0.697265625,0.18817138671875,0.63592529296875,148.4569625197808,-77.93993806405616,-154.29194600524423
