sample,time_s,sensor,accel_x_mps2,accel_y_mps2,accel_z_mps2,gyro_x_radps,gyro_y_radps,gyro_z_radps,quat_i,quat_j,quat_k,quat_real,roll_deg,pitch_deg,yaw_deg
0,0.0400557419998222,bno085,0.7734375,0.09765625,9.49609375,-0.03515625,0.005859375,0.0078125,0.02154541015625,-0.029296875,0.42120361328125,0.90625,6.803840385564805e-05,5.0036576168816684e-05,3.4802416456038806e-06
1,0.0800542070010124,bno085,0.8125,0.05859375,9.4609375,-0.0703125,-0.0078125,-0.009765625,0.0213623046875,-0.03143310546875,0.439697265625,0.8973388671875,-0.0421177904552654,-0.19632816055325236,2.355484716145971
2,0.12005459800093377,bno085,0.8125,0.05859375,9.53515625,-0.056640625,0.0546875,-0.01953125,0.0213623046875,-0.03143310546875,0.439697265625,0.8973388671875,-0.0421177904552654,-0.19632816055325236,2.355484716145971
3,0.16005439599939564,bno085,0.8125,0.01953125,9.4609375,-0.052734375,0.021484375,-0.00390625,0.02020263671875,-0.03167724609375,0.44671630859375,0.89385986328125,-0.1428004917984658,-0.15680320148882698,3.255320558142313
4,0.20005391599988798,bno085,0.734375,0.01953125,9.4921875,-0.052734375,0.021484375,-0.00390625,0.018798828125,-0.03179931640625,0.447509765625,0.8935546875,-0.28907649792030465,-0.09658082873218907,3.3627351154093534
5,0.24005677000059222,bno085,0.7734375,-0.015625,9.49609375,-0.02734375,0.001953125,-0.017578125,0.01824951171875,-0.03240966796875,0.44940185546875,0.892578125,-0.3682048291210772,-0.1289114167289401,3.608748711178655
6,0.28005447600116895,bno085,0.7734375,0.01953125,9.53125,-0.00390625,-0.00390625,-0.015625,0.018310546875,-0.0328369140625,0.4508056640625,0.891845703125,-0.37774411197648045,-0.1743244538263264,3.790410706903399
7,0.3200584959995467,bno085,0.7734375,-0.015625,9.49609375,0.0,-0.021484375,-0.01171875,0.018310546875,-0.0328369140625,0.4508056640625,0.891845703125,-0.37774411197648045,-0.1743244538263264,3.790410706903399
8,0.3600554610002291,bno085,0.7734375,0.01953125,9.4921875,0.013671875,0.015625,-0.001953125,0.0186767578125,-0.0333251953125,0.45172119140625,0.891357421875,-0.3614998257746123,-0.2422976059831269,3.9093529925629644
9,0.40005494500110217,bno085,0.7734375,0.01953125,9.4921875,0.013671875,0.015625,-0.001953125,0.01885986328125,-0.0330810546875,0.4520263671875,0.89117431640625,-0.32896133419829293,-0.22651354770593485,3.945916546946435
10,0.44005389099947934,bno085,0.7734375,0.01953125,9.53125,0.015625,0.0,0.0,0.01910400390625,-0.03277587890625,0.45257568359375,0.89093017578125,-0.28569521006647924,-0.20748631662299924,4.015332893074262
11,0.48005459700107167,bno085,0.7734375,0.01953125,9.53125,0.021484375,0.0625,0.0,0.01904296875,-0.03143310546875,0.453369140625,0.89056396484375,-0.21881278042646476,-0.06639708577847504,4.110976359046231
12,0.5200544880008238,bno085,0.734375,0.01953125,9.53125,0.02734375,0.150390625,0.005859375,0.01904296875,-0.03143310546875,0.453369140625,0.89056396484375,-0.21881278042646476,-0.06639708577847504,4.110976359046231
13,0.5600541189996875,bno085,0.66015625,0.05859375,9.49609375,0.052734375,0.134765625,-0.009765625,0.018310546875,-0.0284423828125,0.4542236328125,0.8902587890625,-0.13416798327161925,0.2778817900988805,4.210272477197623
14,0.6000543250011106,bno085,0.66015625,0.05859375,9.53515625,0.021484375,0.048828125,-0.048828125,0.01806640625,-0.02508544921875,0.4542236328125,0.890380859375,0.015399666236131853,0.6333913163430885,4.198636749233713
15,0.6400546790009685,bno085,0.58203125,0.09765625,9.53125,0.021484375,0.048828125,-0.048828125,0.01800537109375,-0.023681640625,0.45361328125,0.89068603515625,0.07855810090673214,0.779584343721172,4.114094461262384
16,0.6800545320002129,bno085,0.58203125,0.09765625,9.53125,0.005859375,-0.03125,-0.0390625,0.01849365234375,-0.0240478515625,0.452880859375,0.89105224609375,0.1054717421060773,0.7164303374480298,4.020729488848084
17,0.7200537379994785,bno085,0.58203125,0.09765625,9.4921875,0.021484375,-0.033203125,-0.00390625,0.01922607421875,-0.02459716796875,0.45318603515625,0.890869140625,0.15345866399816468,0.6223775555437799,4.060540834894529
18,0.7600551659998018,bno085,0.62109375,0.09765625,9.53125,0.01953125,-0.033203125,-0.00390625,0.01922607421875,-0.02459716796875,0.45318603515625,0.890869140625,0.15345866399816468,0.6223775555437799,4.060540834894529
19,0.8000552419998712,bno085,0.62109375,0.09765625,9.53125,0.005859375,-0.041015625,-0.005859375,0.02001953125,-0.02520751953125,0.453369140625,0.8907470703125,0.20382400548583873,0.5188340645417915,4.084825059248442
20,0.8400543740008288,bno085,0.66015625,0.09765625,9.53125,0.005859375,-0.041015625,-0.005859375,0.02069091796875,-0.02606201171875,0.4534912109375,0.890625,0.2286026783327239,0.3966464754643767,4.10153735434237
21,0.8800544870009617,bno085,0.66015625,0.13671875,9.53125,0.005859375,-0.05859375,-0.013671875,0.021484375,-0.02728271484375,0.45355224609375,0.89056396484375,0.24669947939368012,0.2306770317258102,4.112871222096943
22,0.9200553400005447,bno085,0.6953125,0.13671875,9.53125,0.00390625,-0.05078125,-0.009765625,0.0220947265625,-0.02838134765625,0.4537353515625,0.890380859375,0.2527071347197849,0.08672480453185608,4.137895582213132
23,0.9600545089997468,bno085,0.734375,0.13671875,9.53515625,0.001953125,0.0,0.00390625,0.0220947265625,-0.02838134765625,0.4537353515625,0.890380859375,0.2527071347197849,0.08672480453185608,4.137895582213132
24,1.0000554560010642,bno085,0.8125,0.17578125,9.49609375,0.021484375,0.009765625,-0.111328125,0.0224609375,-0.02862548828125,0.4541015625,0.89019775390625,0.2792280663693428,0.04282026063437829,4.185705495979341
25,1.0400552720002452,bno085,0.8125,0.13671875,9.53125,0.021484375,0.009765625,-0.111328125,0.02301025390625,-0.02825927734375,0.45220947265625,0.89117431640625,0.3455121536206355,0.05121381984921175,3.940516576372141
26,1.0800547740000184,bno085,0.66015625,0.2890625,9.49609375,0.009765625,0.01953125,-0.1796875,0.02294921875,-0.02777099609375,0.4483642578125,0.89312744140625,0.3462797140469103,0.10342922605464823,3.445472147734699
27,1.120055035000405,bno085,0.62109375,0.05859375,9.53515625,-0.015625,0.0,-0.125,0.02288818359375,-0.027587890625,0.44586181640625,0.8944091796875,0.3376266571312247,0.12464905146123478,3.1251979354536763
28,1.1600559260004957,bno085,0.6953125,-0.09375,9.53515625,-0.025390625,0.068359375,-0.033203125,0.02288818359375,-0.027587890625,0.44586181640625,0.8944091796875,0.3376266571312247,0.12464905146123478,3.1251979354536763
29,1.2000547059997189,bno085,0.66015625,0.17578125,9.49609375,-0.015625,0.033203125,-0.0078125,0.02264404296875,-0.0263671875,0.445068359375,0.89483642578125,0.3709119394285478,0.2621894826820586,3.0195758836716555
30,1.2400610410004447,bno085,0.66015625,0.09765625,9.4921875,-0.015625,0.033203125,-0.0078125,0.02191162109375,-0.0257568359375,0.44500732421875,0.8948974609375,0.326512203156973,0.36222318298663064,3.0110061773479413
31,1.2800557840000693,bno085,0.66015625,0.13671875,9.53125,0.01171875,0.0234375,0.009765625,0.02166748046875,-0.02508544921875,0.44549560546875,0.8946533203125,0.33801671337775346,0.44374415865797545,3.070895881745908
32,1.3200551190002443,bno085,0.62109375,0.13671875,9.4921875,0.00390625,-0.037109375,0.009765625,0.02197265625,-0.0255126953125,0.4461669921875,0.89434814453125,0.351138998590223,0.3845066067035005,3.1591461459500794
33,1.3600544729997637,bno085,0.66015625,0.17578125,9.49609375,0.005859375,-0.03125,0.001953125,0.02197265625,-0.0255126953125,0.4461669921875,0.89434814453125,0.351138998590223,0.3845066067035005,3.1591461459500794
34,1.4000546420011233,bno085,0.66015625,0.13671875,9.53125,0.013671875,0.001953125,0.02734375,0.0224609375,-0.026123046875,0.4464111328125,0.8941650390625,0.3711255226234162,0.296948056006897,3.1905058916934377
35,1.44005419899986,bno085,0.66015625,0.17578125,9.53515625,0.013671875,0.001953125,0.02734375,0.0225830078125,-0.0260009765625,0.44720458984375,0.89373779296875,0.3936650895970551,0.30338519663024827,3.2904773805880554
36,1.4800547750000987,bno085,0.66015625,0.13671875,9.4921875,0.005859375,0.01953125,0.0234375,0.02264404296875,-0.0257568359375,0.44805908203125,0.89337158203125,0.41690873618159147,0.3254645274392721,3.400724432259172
37,1.5200542590009718,bno085,0.66015625,0.17578125,9.53515625,0.021484375,-0.052734375,0.00390625,0.02362060546875,-0.0263671875,0.44854736328125,0.89306640625,0.48795103921524824,0.21275508040186983,3.4627973312615876
38,1.5600543350010412,bno085,0.66015625,0.17578125,9.49609375,0.029296875,0.001953125,0.037109375,0.02362060546875,-0.0263671875,0.44854736328125,0.89306640625,0.48795103921524824,0.21275508040186983,3.4627973312615876
39,1.6000560030006454,bno085,0.66015625,0.2109375,9.49609375,0.046875,-0.017578125,0.103515625,0.02423095703125,-0.0262451171875,0.449462890625,0.892578125,0.5610760788233565,0.19386007476826891,3.5780055523561054
40,1.6400547650009685,bno085,0.62109375,0.25,9.53515625,0.046875,-0.017578125,0.103515625,0.02545166015625,-0.026123046875,0.45208740234375,0.8912353515625,0.7049280062984318,0.14299399248306008,3.91221430710107
41,1.6800558409995574,bno085,0.8125,0.2109375,9.53515625,0.115234375,-0.076171875,0.162109375,0.02838134765625,-0.0264892578125,0.45623779296875,0.8890380859375,1.0045891223630254,-0.04860822281284147,4.441041601971493
42,1.720054491001065,bno085,0.8125,0.25,9.53515625,0.009765625,0.1171875,0.0078125,0.02764892578125,-0.0245361328125,0.45751953125,0.888427734375,1.037904151053739,0.18822171068363244,4.6011112136149155
43,1.7600542889995268,bno085,0.62109375,0.2109375,9.5703125,0.08203125,-0.111328125,0.17578125,0.02764892578125,-0.0245361328125,0.45751953125,0.888427734375,1.037904151053739,0.18822171068363244,4.6011112136149155
44,1.800055142999554,bno085,0.8515625,0.2890625,9.49609375,0.078125,-0.25,-0.04296875,0.02972412109375,-0.025634765625,0.46087646484375,0.8865966796875,1.2074227796932375,-0.0354412873668292,5.03254318984938
45,1.8400541999999405,bno085,0.88671875,0.3671875,9.61328125,0.078125,-0.25,-0.04296875,0.03424072265625,-0.029541015625,0.46051025390625,0.886474609375,1.4593735825759933,-0.6714413532845784,4.984688653015711
46,1.8800547390001157,bno085,0.62109375,1.20703125,10.11328125,0.373046875,0.060546875,-0.205078125,0.04254150390625,-0.02532958984375,0.45819091796875,0.887451171875,2.5171138651442417,-0.6759655103407766,4.6529079852808435
47,1.9200549270008196,bno085,1.04296875,0.75,11.296875,0.40234375,0.2265625,-0.158203125,0.05047607421875,-0.01544189453125,0.4560546875,0.88836669921875,3.83460463164759,-0.07706151670986827,4.34942597647759
48,1.9600543540000217,bno085,1.04296875,0.94140625,11.3359375,0.26953125,0.224609375,-0.185546875,0.05047607421875,-0.01544189453125,0.4560546875,0.88836669921875,3.83460463164759,-0.07706151670986827,4.34942597647759
49,2.000058079000155,bno085,1.00390625,0.2890625,10.1875,0.31640625,0.201171875,0.03515625,0.054443359375,-0.009765625,0.453857421875,0.88934326171875,4.525094223332909,0.3044234138518792,4.062355583889207
50,2.040055339999526,bno085,0.92578125,0.59375,9.73046875,0.31640625,0.201171875,0.03515625,0.0592041015625,-0.00238037109375,0.4542236328125,0.888916015625,5.398165357063733,0.8086359716479441,4.115422020397254
51,2.0800540830005048,bno085,0.96484375,0.48046875,10.19140625,-0.42578125,0.056640625,0.41015625,0.05413818359375,-0.003173828125,0.46075439453125,0.8858642578125,4.876300301853512,0.9596798127545402,4.962820327043611
52,2.120054954999432,bno085,0.8515625,-0.09375,9.49609375,-0.283203125,-0.263671875,0.49609375,0.04937744140625,-0.01080322265625,0.47027587890625,0.881103515625,4.038198178203151,0.3967250342369868,6.193001975700611
53,2.16005419800058,bno085,0.19921875,1.28515625,8.23828125,0.1953125,-0.216796875,0.33203125,0.04937744140625,-0.01080322265625,0.47027587890625,0.881103515625,4.038198178203151,0.3967250342369868,6.193001975700611
54,2.20005440299974,bno085,0.4296875,1.171875,9.1875,0.369140625,0.033203125,0.3125,0.05267333984375,-0.01507568359375,0.47796630859375,0.87664794921875,4.176055670244577,-0.24689910517637084,7.181716415645546
55,2.2400577389998944,bno085,0.58203125,0.671875,9.34765625,0.369140625,0.033203125,0.3125,0.05902099609375,-0.00970458984375,0.48504638671875,0.8724365234375,5.143109732784698,-0.09334689297656214,8.097107964539825
56,2.280055667000852,bno085,0.66015625,0.82421875,8.66015625,0.111328125,-0.35546875,0.298828125,0.06610107421875,-0.01300048828125,0.490966796875,0.8685302734375,5.69396286965483,-0.8552393141869578,8.848984698402674
57,2.3200552239995886,bno085,0.92578125,0.94140625,9.42578125,0.1796875,-0.1171875,-0.041015625,0.0731201171875,-0.01434326171875,0.49114990234375,0.86785888671875,6.3226316235287285,-1.3864091113753327,8.850471471661402
58,2.3600546710003982,bno085,1.1171875,0.78515625,9.04296875,0.041015625,-0.505859375,0.0703125,0.0731201171875,-0.01434326171875,0.49114990234375,0.86785888671875,6.3226316235287285,-1.3864091113753327,8.850471471661402
59,2.4000542470002983,bno085,1.30859375,1.0546875,9.6875,0.66015625,-0.26171875,-0.197265625,0.08123779296875,-0.02325439453125,0.49114990234375,0.866943359375,6.637512990406667,-2.7351728695396478,8.810809088680676
60,2.440054988999691,bno085,1.5,0.6328125,9.23046875,0.66015625,-0.26171875,-0.197265625,0.095703125,-0.024169921875,0.48797607421875,0.86724853515625,8.03865520025686,-3.6151825268668967,8.3324589105617
61,2.4800546950009448,bno085,1.34765625,1.36328125,9.61328125,0.193359375,-0.330078125,0.169921875,0.10455322265625,-0.029052734375,0.48895263671875,0.86553955078125,8.661308931435805,-4.611360082546479,8.41171039304008
62,2.520055696999407,bno085,1.1953125,1.9375,9.42578125,-0.04296875,-0.119140625,-0.00390625,0.10662841796875,-0.0322265625,0.4888916015625,0.86517333984375,8.694456448975194,-5.045889064307695,8.3883915648697
63,2.5600549209993915,bno085,1.38671875,1.8984375,9.6484375,0.638671875,0.259765625,-0.25390625,0.10662841796875,-0.0322265625,0.4888916015625,0.86517333984375,8.694456448975194,-5.045889064307695,8.3883915648697
64,2.600054701000772,bno085,1.38671875,1.3984375,9.34765625,0.1171875,0.12109375,-0.041015625,0.115478515625,-0.020751953125,0.48504638671875,0.8665771484375,10.227205210887409,-4.350311525449902,7.863228876121875
65,2.640054888001032,bno085,1.15625,1.9375,9.34765625,0.1171875,0.12109375,-0.041015625,0.1190185546875,-0.01312255859375,0.4837646484375,0.866943359375,11.005226568838165,-3.7673100296424553,7.7088872179776775
66,2.6800565009998536,bno085,1.04296875,2.1640625,9.3046875,-0.1171875,0.1796875,-0.072265625,0.11480712890625,-0.01031494140625,0.48321533203125,0.86785888671875,10.731675982870899,-3.2442701046960383,7.669773793360537
67,2.7200555029994575,bno085,0.96484375,1.859375,9.1484375,-0.314453125,0.20703125,-0.03125,0.1063232421875,-0.0089111328125,0.48291015625,0.869140625,9.948797025571361,-2.6276780158584714,7.672108973445456
68,2.760056541999802,bno085,0.8125,2.01171875,9.11328125,-0.31640625,0.1796875,-0.076171875,0.1063232421875,-0.0089111328125,0.48291015625,0.869140625,9.948797025571361,-2.6276780158584714,7.672108973445456
69,2.800056821999533,bno085,0.8515625,1.62890625,9.26953125,-0.1328125,0.08984375,0.0,0.0970458984375,-0.0084228515625,0.48211669921875,0.87066650390625,9.035041325565235,-2.0549508541442254,7.605350526262403
70,2.8400562500009983,bno085,0.8125,1.515625,9.609375,-0.1328125,0.08984375,0.0,0.09283447265625,-0.00750732421875,0.48175048828125,0.871337890625,8.658622989443316,-1.7259236017244248,7.575954661584385
71,2.880054530000052,bno085,0.88671875,1.20703125,9.53515625,0.015625,0.119140625,-0.001953125,0.09210205078125,-0.00439453125,0.4818115234375,0.87139892578125,8.756000775918109,-1.3735075195139734,7.599473857507677
72,2.92005623499972,bno085,0.734375,1.32421875,9.49609375,-0.099609375,0.03125,0.0390625,0.0899658203125,-0.0045166015625,0.482666015625,0.87115478515625,8.536375942909478,-1.2754047259784562,7.717285953132983
73,2.960055311999895,bno085,0.6953125,1.3984375,9.46484375,-0.025390625,-0.046875,0.04296875,0.0899658203125,-0.0045166015625,0.482666015625,0.87115478515625,8.536375942909478,-1.2754047259784562,7.717285953132983
74,3.0000557950006623,bno085,0.7734375,1.36328125,9.609375,0.005859375,-0.0703125,0.13671875,0.08978271484375,-0.00579833984375,0.48370361328125,0.87060546875,8.45068633174419,-1.4034771252754221,7.848383136086027
75,3.040054686000076,bno085,0.88671875,1.3984375,9.765625,0.005859375,-0.0703125,0.13671875,0.0904541015625,-0.00762939453125,0.48651123046875,0.86895751953125,8.425500489574034,-1.6507087254733257,8.206074935084779
76,3.0800551880001876,bno085,0.92578125,1.4765625,9.609375,0.080078125,-0.0703125,0.177734375,0.09222412109375,-0.0086669921875,0.48931884765625,0.8671875,8.553772872538678,-1.8804663538967101,8.564040596331058
77,3.1200542639999185,bno085,1.078125,1.4375,9.9140625,0.130859375,0.01953125,-0.04296875,0.0941162109375,-0.0074462890625,0.489013671875,0.86712646484375,8.810995518297133,-1.8621112870281071,8.521121907797934
78,3.160053876999882,bno085,1.078125,1.4375,9.765625,-0.03125,0.041015625,0.029296875,0.0941162109375,-0.0074462890625,0.489013671875,0.86712646484375,8.810995518297133,-1.8621112870281071,8.521121907797934
79,3.2000543600006495,bno085,1.04296875,1.5546875,9.73046875,0.0,0.02734375,0.0234375,0.09295654296875,-0.00714111328125,0.48968505859375,0.86688232421875,8.713279644585821,-1.7729082599400572,8.614544311087457
80,3.240057307000825,bno085,0.92578125,1.4765625,9.6484375,0.0,0.02734375,0.0234375,0.0921630859375,-0.007080078125,0.49041748046875,0.8665771484375,8.639252906352588,-1.729145853700533,8.714221639295477
81,3.2800552349999634,bno085,0.92578125,1.515625,9.6875,-0.029296875,0.033203125,0.037109375,0.09100341796875,-0.0072021484375,0.4913330078125,0.8662109375,8.518867714648051,-1.6845839991543246,8.838659247119304
82,3.320054847999927,bno085,0.8515625,1.515625,9.53125,-0.083984375,0.0,0.037109375,0.08917236328125,-0.00823974609375,0.49212646484375,0.86590576171875,8.278598514757377,-1.6921346626552236,8.94395668707096
83,3.360054480001054,bno085,0.7734375,1.515625,9.49609375,-0.0546875,-0.052734375,0.0234375,0.08917236328125,-0.00823974609375,0.49212646484375,0.86590576171875,8.278598514757377,-1.6921346626552236,8.94395668707096
84,3.400055166999664,bno085,0.734375,1.515625,9.4609375,0.349609375,0.078125,0.0859375,0.08843994140625,-0.00970458984375,0.49261474609375,0.86572265625,8.124538832263731,-1.801189939291794,9.006444135409211
85,3.4400551689996064,bno085,0.8125,1.32421875,9.609375,0.349609375,0.078125,0.0859375,0.093505859375,-0.00543212890625,0.49468994140625,0.864013671875,8.878980062481613,-1.683181226875092,9.277933927749617
86,3.480054800000289,bno085,0.8125,1.3984375,9.609375,0.150390625,-0.0234375,0.08203125,0.0977783203125,-0.0030517578125,0.49652099609375,0.86248779296875,9.447073119346976,-1.709260050178533,9.515435250327302
87,3.5200546169999143,bno085,0.92578125,1.70703125,9.875,0.072265625,-0.01171875,0.0234375,0.09912109375,-0.00299072265625,0.4962158203125,0.86248779296875,9.583953523183334,-1.776710736893167,9.47041154546659
88,3.5600555639994127,bno085,1.00390625,1.70703125,9.91796875,-0.111328125,-0.0390625,0.009765625,0.09912109375,-0.00299072265625,0.4962158203125,0.86248779296875,9.583953523183334,-1.776710736893167,9.47041154546659
89,3.6000551030010683,bno085,1.04296875,1.74609375,9.99609375,0.001953125,0.021484375,-0.015625,0.0977783203125,-0.004638671875,0.49627685546875,0.86260986328125,9.3562975843654,-1.8644056580980848,9.475272554333886
90,3.6400569939996785,bno085,1.00390625,1.5546875,9.765625,0.001953125,0.021484375,-0.015625,0.09686279296875,-0.004638671875,0.4962158203125,0.86273193359375,9.264165751792625,-1.8115097844652484,9.469881073386652
91,3.680058199000996,bno085,0.92578125,1.58984375,9.57421875,0.083984375,0.005859375,-0.015625,0.09783935546875,-0.00360107421875,0.49603271484375,0.86279296875,9.421098075323295,-1.7619956101854775,9.449206185734802
92,3.72006022000096,bno085,0.88671875,1.4765625,9.4609375,-0.025390625,-0.03125,-0.02734375,0.09814453125,-0.00396728515625,0.495361328125,0.86309814453125,9.428529673146729,-1.8087836508495019,9.356751901258493
93,3.7600639989996125,bno085,0.96484375,1.4375,9.49609375,-0.0625,-0.072265625,0.00390625,0.09814453125,-0.00396728515625,0.495361328125,0.86309814453125,9.428529673146729,-1.8087836508495019,9.356751901258493
94,3.8000591500003793,bno085,0.96484375,1.66796875,9.7265625,-0.060546875,-0.0625,0.00390625,0.09796142578125,-0.0059814453125,0.4952392578125,0.86322021484375,9.296518646936539,-1.997274789765722,9.333131324458632
95,3.840058540999962,bno085,0.96484375,1.62890625,9.6875,-0.060546875,-0.0625,0.00390625,0.097412109375,-0.0079345703125,0.4951171875,0.86334228515625,9.130841937561982,-2.159046812389137,9.310705375145908
96,3.880056672000137,bno085,0.88671875,1.62890625,9.4609375,0.078125,-0.001953125,-0.0078125,0.09912109375,-0.00714111328125,0.494873046875,0.86328125,9.346385992854007,-2.1749270206378486,9.275432784514967
97,3.9200575630002277,bno085,0.88671875,1.58984375,9.34375,0.279296875,-0.01171875,-0.02734375,0.10394287109375,-0.0040283203125,0.49481201171875,0.86273193359375,10.005561128575021,-2.139398848833854,9.263887311569842
98,3.960056436000741,bno085,1.00390625,1.70703125,9.84375,0.0625,-0.05078125,0.0078125,0.10394287109375,-0.0040283203125,0.49481201171875,0.86273193359375,10.005561128575021,-2.139398848833854,9.263887311569842
99,4.000058030000218,bno085,1.078125,1.62890625,9.84765625,-0.029296875,-0.046875,0.01171875,0.10595703125,-0.003662109375,0.4952392578125,0.86224365234375,10.229537983586868,-2.2227564896233485,9.314737448282985
100,4.040057309999611,bno085,1.078125,1.58984375,9.875,-0.029296875,-0.046875,0.01171875,0.10626220703125,-0.00439453125,0.49517822265625,0.86224365234375,10.218769858833513,-2.312276240847945,9.30186914254241
101,4.08005799700004,bno085,1.04296875,1.58984375,9.65234375,-0.001953125,0.025390625,-0.001953125,0.105712890625,-0.00439453125,0.49517822265625,0.8623046875,10.163501921689958,-2.280956609737775,9.303704640449409
102,4.120057498999813,bno085,0.88671875,1.74609375,9.34375,0.001953125,0.037109375,0.00390625,0.10528564453125,-0.00372314453125,0.494140625,0.86297607421875,10.156375350790046,-2.1777792273639816,9.17299363656144
103,4.160056871000052,bno085,0.8125,1.78125,9.38671875,-0.11328125,0.080078125,-0.048828125,0.10528564453125,-0.00372314453125,0.494140625,0.86297607421875,10.156375350790046,-2.1777792273639816,9.17299363656144
104,4.200056872999994,bno085,0.88671875,1.62890625,9.26953125,-0.037109375,0.060546875,-0.078125,0.10223388671875,-0.00341796875,0.4931640625,0.8638916015625,9.864316467177483,-1.9628177878345336,9.056807878130474
105,4.240059190000466,bno085,1.04296875,1.515625,9.875,-0.037109375,0.060546875,-0.078125,0.09991455078125,-0.00299072265625,0.49169921875,0.864990234375,9.651138519029306,-1.7725958688090868,8.874388877000609
106,4.280058952001127,bno085,1.04296875,1.78125,10.03125,-0.05078125,0.091796875,0.001953125,0.097900390625,-0.00152587890625,0.49176025390625,0.86517333984375,9.530918905485954,-1.513285333636691,8.896181942396966
107,4.3200585459999274,bno085,0.88671875,1.74609375,9.76953125,0.04296875,0.078125,-0.013671875,0.09771728515625,0.0008544921875,0.49176025390625,0.865234375,9.64683877346655,-1.2656166785145242,8.910869724421
108,4.360058270000081,bno085,0.734375,1.74609375,9.6484375,0.27734375,0.1328125,-0.0546875,0.09771728515625,0.0008544921875,0.49176025390625,0.865234375,9.64683877346655,-1.2656166785145242,8.910869724421
109,4.400057421000383,bno085,0.54296875,1.70703125,9.26953125,0.1953125,0.056640625,0.029296875,0.10125732421875,0.0062255859375,0.4910888671875,0.86517333984375,10.30217828414193,-0.9236366167446003,8.845047121955925
110,4.440056736999395,bno085,0.62109375,1.78125,9.53125,0.1953125,0.056640625,0.029296875,0.10504150390625,0.010498046875,0.49163818359375,0.8643798828125,10.925564234114454,-0.7194702802080692,8.9374344616791
111,4.480057906001093,bno085,0.58203125,1.78125,9.34765625,0.099609375,0.0546875,0.13671875,0.10662841796875,0.013427734375,0.49462890625,0.8624267578125,11.262879776932428,-0.5565177307240081,9.348583439038904
112,4.520057390000147,bno085,0.66015625,2.2421875,9.73046875,0.169921875,-0.1015625,0.0390625,0.11065673828125,0.01422119140625,0.49566650390625,0.861328125,11.71679006583086,-0.7215589327643196,9.481202658267955
113,4.560057114000301,bno085,0.8125,2.203125,9.8046875,0.34765625,-0.0546875,0.0,0.11065673828125,0.01422119140625,0.49566650390625,0.861328125,11.71679006583086,-0.7215589327643196,9.481202658267955
114,4.600057931000265,bno085,0.734375,2.1640625,9.5703125,0.38671875,-0.037109375,-0.0078125,0.11865234375,0.0177001953125,0.49560546875,0.8602294921875,12.71747623386578,-0.8341520481747698,9.482336613856903
115,4.640057692000482,bno085,0.7734375,2.359375,9.7265625,0.505859375,0.033203125,-0.015625,0.12744140625,0.02178955078125,0.49505615234375,0.85919189453125,13.832128115936214,-0.9252612193630717,9.426742622350211
116,4.680060267999579,bno085,0.7734375,2.55078125,9.76953125,0.505859375,0.033203125,-0.015625,0.1380615234375,0.02880859375,0.49420166015625,0.85784912109375,15.299076319102962,-0.8273024545514472,9.366654567321019
117,4.720058140001129,bno085,0.7734375,2.85546875,9.6484375,0.859375,-0.017578125,-0.07421875,0.1546630859375,0.0384521484375,0.49237060546875,0.85565185546875,17.51902265926339,-0.7971485975150364,9.212525213734896
118,4.760058124000352,bno085,0.46875,3.046875,8.6875,0.740234375,-0.119140625,-0.14453125,0.17236328125,0.0452880859375,0.48828125,0.85430908203125,19.691059300488774,-1.0541062441690512,8.740012132262846
119,4.800057589000062,bno085,0.62109375,3.046875,8.5,0.474609375,-0.685546875,-0.232421875,0.17236328125,0.0452880859375,0.48828125,0.85430908203125,19.691059300488774,-1.0541062441690512,8.740012132262846
120,4.840057553999941,bno085,1.34765625,3.0859375,9.9921875,0.474609375,-0.685546875,-0.232421875,0.18994140625,0.04083251953125,0.4815673828125,0.8546142578125,21.2212968363512,-2.337066289213619,7.732364615038317
121,4.8800567779999255,bno085,1.00390625,3.7734375,9.15234375,0.623046875,0.064453125,-0.044921875,0.20208740234375,0.04888916015625,0.4791259765625,0.852783203125,22.915284836425787,-2.1719862835344634,7.522904552286501
122,4.920056316999762,bno085,0.8125,3.7734375,9.15234375,0.419921875,0.11328125,-0.20703125,0.21002197265625,0.0567626953125,0.47528076171875,0.8525390625,24.16291331041219,-1.74664550600345,7.163114557337357
123,4.960056801000974,bno085,0.8515625,3.96484375,8.921875,0.45703125,-0.0703125,-0.05859375,0.21002197265625,0.0567626953125,0.47528076171875,0.8525390625,24.16291331041219,-1.74664550600345,7.163114557337357
124,5.000057358000049,bno085,0.7734375,4.234375,9.265625,1.40234375,0.73046875,0.021484375,0.2208251953125,0.0648193359375,0.47064208984375,0.851806640625,25.71736173158826,-1.4369793339456356,6.7147276659455
125,5.0400573420010915,bno085,0.046875,4.88671875,7.8125,1.47265625,0.845703125,-0.001953125,0.24041748046875,0.09539794921875,0.47149658203125,0.84307861328125,29.485163283649392,0.3829370786090021,7.579942731707584
126,5.080056083999807,bno085,-0.30078125,5.69140625,7.81640625,1.47265625,0.845703125,-0.001953125,0.2608642578125,0.1314697265625,0.47247314453125,0.83154296875,33.75286689927316,2.5678996244201207,8.865410315197385
127,5.1200575870007015,bno085,-0.375,5.921875,7.85546875,1.59765625,0.865234375,0.015625,0.28515625,0.16705322265625,0.473388671875,0.8165283203125,38.52432418253343,4.329679937806911,10.40554599078605
128,5.160057106999375,bno085,-0.18359375,5.69140625,7.15625,1.1796875,-0.03125,-0.1171875,0.28515625,0.16705322265625,0.473388671875,0.8165283203125,38.52432418253343,4.329679937806911,10.40554599078605
129,5.200057702000777,bno085,-0.26171875,6.265625,6.625,1.369140625,-0.1953125,0.115234375,0.3101806640625,0.18609619140625,0.46868896484375,0.805908203125,42.35896914863997,4.694862753506713,10.707014044458454
130,5.24005731500074,bno085,-0.14453125,7.56640625,6.89453125,1.369140625,-0.1953125,0.115234375,0.32861328125,0.19171142578125,0.46466064453125,0.79962158203125,44.657310639218636,4.236844749620721,10.493092406759192
131,5.280057780000789,bno085,-0.14453125,6.87890625,6.625,1.12109375,-0.7421875,0.283203125,0.3564453125,0.19329833984375,0.4591064453125,0.79046630859375,47.721185867213265,2.9233505822172,9.888200797541451
132,5.320058151999547,bno085,0.19921875,7.03125,6.96875,0.630859375,-0.4296875,0.1640625,0.37567138671875,0.1875,0.4549560546875,0.78533935546875,49.42744159387315,1.4522327797331334,9.061387855091535
133,5.360060283999701,bno085,0.50390625,8.02734375,6.625,0.529296875,-0.259765625,0.126953125,0.37567138671875,0.1875,0.4549560546875,0.78533935546875,49.42744159387315,1.4522327797331334,9.061387855091535
134,5.400057675000426,bno085,0.19921875,7.9453125,5.78125,0.431640625,-0.556640625,0.005859375,0.388427734375,0.18536376953125,0.45294189453125,0.78076171875,50.695592683341175,0.5847534264648111,8.682474378606877
135,5.440057492000051,bno085,0.58203125,7.4140625,6.08984375,0.431640625,-0.556640625,0.005859375,0.40069580078125,0.17938232421875,0.4473876953125,0.7791748046875,51.67064890529734,-0.37123382214143963,7.674497997755121
136,5.480057790000501,bno085,0.6953125,7.37890625,5.8984375,-0.1875,-0.125,0.185546875,0.4027099609375,0.1717529296875,0.44842529296875,0.77923583984375,51.43735294281796,-1.2069731053796013,7.393876946259094
137,5.520057495999936,bno085,0.46875,7.33984375,5.7421875,0.1484375,-0.095703125,0.056640625,0.40850830078125,0.17401123046875,0.4451904296875,0.777587890625,52.21822444343584,-1.1860501991582366,7.1075444206626415
138,5.56005660899973,bno085,0.8515625,8.30078125,5.55078125,0.873046875,-0.259765625,-0.548828125,0.40850830078125,0.17401123046875,0.4451904296875,0.777587890625,52.21822444343584,-1.1860501991582366,7.1075444206626415
139,5.600056610999673,bno085,0.8125,10.36328125,2.984375,1.099609375,-1.3515625,-0.42578125,0.42529296875,0.183837890625,0.42779541015625,0.776123046875,54.65452878643103,-0.35672100231280557,5.541206654038551
140,5.640057594000609,bno085,0.54296875,6.45703125,6.625,1.099609375,-1.3515625,-0.42578125,0.44921875,0.17388916015625,0.4052734375,0.7769775390625,56.77076751465494,-1.2720729930577146,2.32043532624415
141,5.6800576519999595,bno085,0.6953125,8.60546875,5.28515625,0.75,-0.669921875,-0.25,0.47113037109375,0.16748046875,0.38836669921875,0.7740478515625,58.98123881251691,-2.0380884942098216,-0.03314968937705285
142,5.7200576169998385,bno085,0.66015625,7.68359375,5.70703125,1.240234375,0.390625,-0.021484375,0.4940185546875,0.18572998046875,0.3836669921875,0.7578125,62.77880615035464,-1.5080517351575604,0.4265886227479386
143,5.760058322999612,bno085,0.92578125,9.484375,3.94140625,1.39453125,0.5234375,-0.103515625,0.4940185546875,0.18572998046875,0.3836669921875,0.7578125,62.77880615035464,-1.5080517351575604,0.4265886227479386
144,5.800056731999575,bno085,0.19921875,7.64453125,3.4453125,0.251953125,0.14453125,0.126953125,0.509033203125,0.2081298828125,0.3843994140625,0.741455078125,65.94759953918063,-0.6337906289042585,1.8614690904696907
145,5.840059363999899,bno085,0.2734375,9.2109375,3.59765625,0.251953125,0.14453125,0.126953125,0.51519775390625,0.21588134765625,0.384521484375,0.73492431640625,67.18917153395944,-0.4087287388301954,2.3656454096513744
146,5.880059773000539,bno085,0.54296875,8.75,2.984375,0.8984375,-0.033203125,-0.328125,0.52947998046875,0.2274169921875,0.37518310546875,0.72607421875,69.65482584589313,0.2682973084457289,2.1088468021029616
147,5.920059738000418,bno085,0.734375,10.1328125,2.75390625,1.6640625,0.1953125,-0.232421875,0.554931640625,0.24700927734375,0.36474609375,0.7056884765625,74.12656611105172,0.8949697301947518,2.3597345497970186
148,5.9600578879999375,bno085,0.58203125,9.09765625,2.9453125,1.54296875,0.203125,0.078125,0.554931640625,0.24700927734375,0.36474609375,0.7056884765625,74.12656611105172,0.8949697301947518,2.3597345497970186
149,6.000057076000303,bno085,0.66015625,10.63671875,0.953125,1.71875,0.32421875,-0.072265625,0.57940673828125,0.264892578125,0.35870361328125,0.68218994140625,78.52764891297721,1.0137942603475407,3.052507306471872
150,6.0400570960009645,bno085,1.00390625,9.8984375,1.18359375,1.71875,0.32421875,-0.072265625,0.60394287109375,0.28631591796875,0.3519287109375,0.65533447265625,83.34295635273533,1.278179880398521,4.06014007925944
151,6.080059283000082,bno085,0.54296875,9.7109375,-0.234375,1.6796875,0.685546875,-0.05859375,0.62396240234375,0.3121337890625,0.34722900390625,0.62664794921875,88.07230656344493,1.734190180494194,5.7775237706126115
152,6.120057545000236,bno085,0.390625,9.484375,-0.73046875,1.40234375,0.921875,-0.044921875,0.63616943359375,0.33941650390625,0.34918212890625,0.59844970703125,92.06614591722017,1.9830136924919015,8.399807486111865
153,6.1600549909999245,bno085,0.3125,9.90234375,-0.9609375,0.93359375,0.703125,-0.44140625,0.63958740234375,0.36474609375,0.34722900390625,0.580810546875,94.77473683151203,2.994905989443374,10.612013128026511
154,6.200057178000861,bno085,-0.03125,8.828125,-1.7265625,1.390625,0.048828125,-0.103515625,0.63958740234375,0.36474609375,0.34722900390625,0.580810546875,94.77473683151203,2.994905989443374,10.612013128026511
155,6.24006319900036,bno085,0.046875,8.90625,-1.8046875,1.390625,0.048828125,-0.103515625,0.6558837890625,0.3798828125,0.3349609375,0.55975341796875,98.53950705073986,3.359667864073483,10.997297187194572
156,6.28005781200045,bno085,0.4296875,9.21484375,-2.33984375,0.994140625,-0.109375,0.107421875,0.6715087890625,0.3848876953125,0.326171875,0.542724609375,101.38104260712731,3.00600812521718,10.732918364942634
157,6.320064257999547,bno085,0.54296875,9.59765625,-2.53125,0.3984375,0.21875,0.224609375,0.67724609375,0.3865966796875,0.32867431640625,0.53277587890625,102.47408958822307,2.262872537186088,11.110855553409712
158,6.360058316000504,bno085,0.3125,9.171875,-3.18359375,-0.138671875,0.291015625,0.12890625,0.67724609375,0.3865966796875,0.32867431640625,0.53277587890625,102.47408958822307,2.262872537186088,11.110855553409712
159,6.40005824400032,bno085,0.08203125,9.09765625,-3.7578125,0.05859375,-0.197265625,0.00390625,0.67510986328125,0.3876953125,0.3358154296875,0.53021240234375,102.29184064739793,1.7436294772101555,11.831100000596773
160,6.440057394000178,bno085,0.3125,9.09375,-2.22265625,-0.06640625,-0.091796875,0.0703125,0.67724609375,0.3858642578125,0.33355712890625,0.5302734375,102.43658156787829,1.7282314448084704,11.449167955598393
161,6.480058174000078,bno085,0.46875,9.51953125,-1.99609375,-0.06640625,-0.091796875,0.0703125,0.67779541015625,0.3829345703125,0.3331298828125,0.531982421875,102.23564814461324,1.6372544057106755,11.115260640490295
162,6.520057158000782,bno085,0.54296875,9.59375,-1.99609375,-0.03125,-0.005859375,0.015625,0.67755126953125,0.38214111328125,0.3333740234375,0.53271484375,102.12145811502982,1.6112739588832272,11.056433975703175
163,6.560058512000978,bno085,0.66015625,9.67578125,-1.99609375,0.087890625,-0.005859375,-0.056640625,0.67779541015625,0.38336181640625,0.33209228515625,0.53228759765625,102.27040193414678,1.757389112342358,11.069884925196467
164,6.6000597729998844,bno085,0.50390625,9.484375,-2.26171875,-0.05859375,0.041015625,-0.138671875,0.67779541015625,0.38336181640625,0.33209228515625,0.53228759765625,102.27040193414678,1.757389112342358,11.069884925196467
165,6.640071034000357,bno085,0.3515625,9.171875,-2.30078125,-0.095703125,-0.05078125,-0.12109375,0.67572021484375,0.3856201171875,0.33172607421875,0.53350830078125,102.15699264539923,2.0567084875944475,11.271835902482021
166,6.6800589070007845,bno085,0.3515625,9.4453125,-2.109375,-0.095703125,-0.05078125,-0.12109375,0.67352294921875,0.38653564453125,0.32989501953125,0.5367431640625,101.88518901767235,2.4810525305686015,11.213311556344722
167,6.720057574999373,bno085,0.23828125,9.1328125,-1.99609375,-0.369140625,-0.017578125,-0.185546875,0.66754150390625,0.38671875,0.329833984375,0.5440673828125,100.96235663880537,3.0478778562173736,11.234075919110007
168,6.7600586879998446,bno085,0.23828125,9.4453125,-2.1484375,-0.314453125,0.0078125,-0.111328125,0.66168212890625,0.385986328125,0.33148193359375,0.55072021484375,99.9924289114627,3.3930191392742906,11.306141276798913
169,6.800065134999386,bno085,0.19921875,9.515625,-2.22265625,-0.029296875,-0.0234375,-0.015625,0.66168212890625,0.385986328125,0.33148193359375,0.55072021484375,99.9924289114627,3.3930191392742906,11.306141276798913
170,6.840059804000703,bno085,0.19921875,9.75390625,-1.99609375,0.017578125,-0.00390625,0.009765625,0.660400390625,0.3857421875,0.33135986328125,0.552490234375,99.77077302493124,3.5138076557267333,11.27147139217721
171,6.880056750000222,bno085,0.16015625,9.671875,-2.03125,0.017578125,-0.00390625,0.009765625,0.66058349609375,0.38568115234375,0.3311767578125,0.55242919921875,99.79173284415609,3.5141369070217197,11.249492648877958
172,6.920059271000355,bno085,0.23828125,9.71484375,-1.8046875,0.078125,-0.021484375,0.001953125,0.6617431640625,0.3858642578125,0.3302001953125,0.55145263671875,99.98249148138217,3.5126829227674774,11.182487957397802
173,6.960057420999874,bno085,0.12109375,9.6328125,-1.91796875,-0.04296875,0.0234375,0.005859375,0.6612548828125,0.38580322265625,0.3309326171875,0.55169677734375,99.90515692781692,3.482475738353148,11.240631679208686
174,7.00005829300062,bno085,0.08203125,9.5546875,-2.109375,-0.09765625,-0.0859375,-0.021484375,0.6612548828125,0.38580322265625,0.3309326171875,0.55169677734375,99.90515692781692,3.482475738353148,11.240631679208686
175,7.0400569810008164,bno085,0.08203125,9.25,-2.33984375,-0.328125,-0.318359375,-0.05859375,0.66058349609375,0.38433837890625,0.33026123046875,0.553955078125,99.65507763568294,3.565465154495211,11.035367551626571
176,7.080056668000907,bno085,-0.0703125,9.21484375,-2.72265625,-0.328125,-0.318359375,-0.05859375,0.658447265625,0.37921142578125,0.32733154296875,0.5616455078125,98.81807374679926,3.8755690186965577,10.264505496447484
177,7.1200581140001304,bno085,0.16015625,9.5546875,-1.19140625,-0.291015625,-0.173828125,-0.091796875,0.655029296875,0.37457275390625,0.32550048828125,0.56976318359375,97.84738177655233,4.18997321148703,9.640852024194434
178,7.1600579130008555,bno085,0.12109375,9.87109375,-1.3046875,-0.341796875,0.0,0.04296875,0.65087890625,0.37158203125,0.328369140625,0.57489013671875,96.95842909641765,4.1534898869879076,9.595024618148821
179,7.200058544000058,bno085,0.16015625,10.015625,-1.07421875,-0.0546875,-0.03125,0.001953125,0.65087890625,0.37158203125,0.328369140625,0.57489013671875,96.95842909641765,4.1534898869879076,9.595024618148821
180,7.240058843000952,bno085,0.08203125,9.8984375,-1.19140625,0.0,0.052734375,0.046875,0.650146484375,0.3707275390625,0.328369140625,0.57623291015625,96.76947830032515,4.181720798717989,9.509609209275332
181,7.280067419000261,bno085,-0.03125,9.67578125,-1.49609375,0.0,0.052734375,0.046875,0.64996337890625,0.37054443359375,0.32965087890625,0.5758056640625,96.73345981128803,4.063195986420649,9.603898271715673
182,7.320058475999758,bno085,0.0078125,9.7890625,-1.53515625,-0.080078125,0.009765625,0.03515625,0.6495361328125,0.36956787109375,0.330810546875,0.5762939453125,96.585914030119,3.9491421692819952,9.610566461437074
183,7.3600571820006735,bno085,0.0078125,9.63671875,-1.8046875,-0.083984375,-0.060546875,0.017578125,0.64886474609375,0.36798095703125,0.33099365234375,0.57794189453125,96.3403741861526,3.925389409025932,9.470236940272018
184,7.400059277000764,bno085,-0.03125,9.671875,-1.19140625,-0.0390625,-0.0546875,-0.015625,0.64886474609375,0.36798095703125,0.33099365234375,0.57794189453125,96.3403741861526,3.925389409025932,9.470236940272018
185,7.440061315999628,bno085,-0.0703125,9.515625,-1.15234375,0.052734375,-0.130859375,-0.033203125,0.64849853515625,0.3668212890625,0.3302001953125,0.57952880859375,96.17408260833818,3.987714389446179,9.2859289795962
186,7.480057503000353,bno085,-0.0703125,9.59375,-1.07421875,0.052734375,-0.130859375,-0.033203125,0.6500244140625,0.36590576171875,0.3271484375,0.58013916015625,96.29897303503981,4.121012519116722,8.927020108621349
187,7.520057838999492,bno085,0.0078125,9.71484375,-0.921875,0.07421875,-0.556640625,-0.099609375,0.6544189453125,0.36083984375,0.317138671875,0.58392333984375,96.43591394937252,4.521093497990539,7.553537593731574
188,7.5600573219999205,bno085,-0.18359375,8.91015625,-1.6484375,-0.037109375,-0.197265625,-0.07421875,0.65667724609375,0.35809326171875,0.3095703125,0.587158203125,96.48273688962503,4.952354027731674,6.627362901637187
189,7.600058250000075,bno085,-0.22265625,9.4453125,-1.7265625,-0.02734375,-0.1484375,0.056640625,0.65667724609375,0.35809326171875,0.3095703125,0.587158203125,96.48273688962503,4.952354027731674,6.627362901637187
190,7.640057214999615,bno085,-0.14453125,9.59375,-1.61328125,-0.037109375,-0.0546875,0.19921875,0.6580810546875,0.3558349609375,0.3079833984375,0.5877685546875,96.48400789470082,4.89303904072437,6.269460152981584
191,7.680058531999748,bno085,-0.03125,9.7109375,-1.49609375,-0.037109375,-0.0546875,0.19921875,0.65948486328125,0.35162353515625,0.309814453125,0.5877685546875,96.33502486767644,4.419778201766752,6.019202951770492
192,7.720057738000833,bno085,0.08203125,9.828125,-1.34375,-0.02734375,-0.052734375,0.283203125,0.66204833984375,0.3460693359375,0.31317138671875,0.58636474609375,96.26179036308642,3.6427288918858896,5.774925946382003
193,7.760057166000479,bno085,0.19921875,9.75390625,-1.34375,-0.0078125,-0.025390625,0.396484375,0.66534423828125,0.33892822265625,0.3184814453125,0.583984375,96.18794197804135,2.545400348163762,5.555906993684803
194,7.8000573350000195,bno085,0.16015625,9.59765625,-1.265625,-0.080078125,-0.078125,0.744140625,0.66534423828125,0.33892822265625,0.3184814453125,0.583984375,96.18794197804135,2.545400348163762,5.555906993684803
195,7.840056799999729,bno085,0.3515625,9.2109375,-1.61328125,-0.12109375,-0.267578125,1.1640625,0.67071533203125,0.32623291015625,0.32757568359375,0.5799560546875,96.02220006790392,0.6451041564521571,5.15173594067863
196,7.880057079000835,bno085,0.8125,9.2109375,-1.3828125,-0.12109375,-0.267578125,1.1640625,0.679931640625,0.30291748046875,0.34039306640625,0.57452392578125,95.71793388300625,-2.4587675228733037,4.124720967642197
197,7.920059693000439,bno085,1.5,10.32421875,-1.03515625,-0.138671875,-0.3046875,1.234375,0.689208984375,0.275146484375,0.35479736328125,0.56866455078125,95.28957590511062,-6.02237530479442,2.907877184990751
198,7.9600573610005085,bno085,1.76953125,8.79296875,-1.34375,-0.42578125,-0.33984375,1.482421875,0.6962890625,0.242431640625,0.37176513671875,0.5640869140625,94.42827354859037,-10.028330335542416,1.6169324147043895
199,8.000058678000642,bno085,2.84375,10.59765625,-0.5,-0.11328125,-0.337890625,1.224609375,0.6962890625,0.242431640625,0.37176513671875,0.5640869140625,94.42827354859037,-10.028330335542416,1.6169324147043895
200,8.040057551001155,bno085,2.99609375,9.25390625,-0.234375,-0.265625,0.048828125,1.490234375,0.70501708984375,0.210693359375,0.385498046875,0.55670166015625,94.14660653672378,-13.911526213259812,0.16734510621349946
201,8.080058256000484,bno085,3.68359375,9.55859375,-1.15234375,-0.265625,0.048828125,1.490234375,0.70947265625,0.18365478515625,0.40679931640625,0.54534912109375,93.69974705730027,-18.06022732975262,-0.052025094914804025
202,8.120058091999454,bno085,3.83984375,8.1796875,-1.07421875,0.1015625,0.015625,1.1875,0.7152099609375,0.1611328125,0.4241943359375,0.53155517578125,93.8413279118887,-21.73677310928035,-0.27780775375126504
203,8.160056853001151,bno085,4.03125,7.296875,-1.3046875,-0.09375,-0.189453125,1.587890625,0.7220458984375,0.13140869140625,0.441162109375,0.51641845703125,94.07842124879036,-26.02679157877493,-1.1233904692909087
204,8.20005802200103,bno085,4.83203125,8.328125,-1.15234375,0.00390625,-0.166015625,1.44140625,0.7220458984375,0.13140869140625,0.441162109375,0.51641845703125,94.07842124879036,-26.02679157877493,-1.1233904692909087
205,8.240058319999662,bno085,5.41015625,6.95703125,-1.07421875,0.025390625,-0.154296875,1.6640625,0.72821044921875,0.10247802734375,0.456787109375,0.5006103515625,94.49233895256518,-30.189378683701296,-2.031103302961207
206,8.280055451999942,bno085,5.75390625,7.03125,-1.0,0.025390625,-0.154296875,1.6640625,0.73358154296875,0.070556640625,0.47430419921875,0.48162841796875,95.02973160108266,-34.86408789985143,-3.0016190225630246
207,8.320058047000202,bno085,6.2890625,7.5234375,-0.5390625,-0.048828125,-0.16796875,1.609375,0.73785400390625,0.03753662109375,0.4903564453125,0.4622802734375,95.7160500390424,-39.541363793415336,-4.248699481342885
208,8.360057345000314,bno085,6.55859375,6.03515625,-1.11328125,-0.06640625,-0.486328125,1.90625,0.74285888671875,-0.000732421875,0.50250244140625,0.44232177734375,97.03866565142347,-44.40208872636533,-6.59711435545795
209,8.400057347000256,bno085,7.09375,6.11328125,-1.0,-0.20703125,-0.13671875,1.869140625,0.74285888671875,-0.000732421875,0.50250244140625,0.44232177734375,97.03866565142347,-44.40208872636533,-6.59711435545795
210,8.440059590000601,bno085,7.40234375,5.7265625,-1.03515625,0.017578125,0.25,1.8984375,0.7432861328125,-0.03948974609375,0.51776123046875,0.42169189453125,98.0567333426686,-49.52924493923949,-8.618898554678877
211,8.480057665999993,bno085,7.203125,4.38671875,-1.3828125,0.017578125,0.25,1.8984375,0.7381591796875,-0.07220458984375,0.54058837890625,0.39703369140625,98.35452740288517,-54.93139198623796,-8.972292154372527
212,8.520057687001099,bno085,8.359375,3.96484375,-0.73046875,-0.11328125,0.130859375,2.06640625,0.73052978515625,-0.109619140625,0.56207275390625,0.3720703125,98.74861914507257,-60.67762472254298,-9.863646039656137
213,8.560056967000492,bno085,8.66796875,2.703125,-0.234375,0.1015625,0.349609375,2.205078125,0.720458984375,-0.14404296875,0.5859375,0.34185791015625,99.21376064640715,-66.70400215262099,-10.18916008411265
214,8.600057745999948,bno085,8.89453125,2.47265625,-0.1171875,-0.09375,0.599609375,2.03125,0.720458984375,-0.14404296875,0.5859375,0.34185791015625,99.21376064640715,-66.70400215262099,-10.18916008411265
215,8.640057673999763,bno085,8.890625,1.3984375,-1.45703125,-0.109375,0.365234375,1.76953125,0.703125,-0.17730712890625,0.612548828125,0.3145751953125,96.92302769892903,-72.7818478801517,-7.9872587524820124
216,8.680058676000044,bno085,9.234375,0.55859375,-1.421875,-0.109375,0.365234375,1.76953125,0.68682861328125,-0.20806884765625,0.63262939453125,0.29107666015625,93.83785240701495,-78.05580953236479,-5.275177564776101
217,8.720058381999479,bno085,9.8125,0.86328125,-0.80859375,-0.07421875,-0.01171875,1.443359375,0.67779541015625,-0.2342529296875,0.64227294921875,0.27056884765625,95.00193866034618,-82.13321648567086,-6.801332027039599
218,8.760060921000331,bno085,9.5859375,-0.74609375,-0.65234375,-0.099609375,-0.068359375,0.828125,0.673095703125,-0.25054931640625,0.6463623046875,0.25750732421875,98.97410407352334,-84.5740884696449,-11.094915561962981
219,8.800057368000125,bno085,9.734375,0.2109375,-0.34765625,-0.064453125,-0.3125,0.357421875,0.673095703125,-0.25054931640625,0.6463623046875,0.25750732421875,98.97410407352334,-84.5740884696449,-11.094915561962981
220,8.84005709200028,bno085,9.234375,-0.8984375,0.03515625,0.00390625,-0.302734375,0.080078125,0.6748046875,-0.2607421875,0.64373779296875,0.2496337890625,112.33140511074149,-85.54420803496656,-24.541400857322273
221,8.8800586870002,bno085,8.74609375,-1.43359375,0.53515625,0.00390625,-0.302734375,0.080078125,0.67901611328125,-0.26434326171875,0.6390380859375,0.246337890625,123.54643723075874,-85.3660933986118,-35.890307041577486
222,8.920060263000778,bno085,9.0859375,-0.70703125,-0.1171875,0.0546875,-0.1015625,0.060546875,0.68023681640625,-0.2659912109375,0.63818359375,0.243408203125,128.6476262472717,-85.42195536036418,-40.886602810253265
223,8.96005689500089,bno085,8.85546875,-1.20703125,-0.38671875,0.076171875,0.01171875,0.123046875,0.68023681640625,-0.26605224609375,0.63916015625,0.24072265625,130.8023457809806,-85.59368354077196,-42.82529263782825
224,9.0000587859995,bno085,9.05078125,-0.8203125,-0.65234375,0.09765625,-0.001953125,0.109375,0.68023681640625,-0.26605224609375,0.63916015625,0.24072265625,130.8023457809806,-85.59368354077196,-42.82529263782825
225,9.04005664000033,bno085,9.35546875,-0.74609375,-0.69140625,0.046875,-0.078125,-0.01953125,0.68011474609375,-0.26617431640625,0.6405029296875,0.2373046875,133.72285423331522,-85.8209759665694,-45.46741660182553
226,9.080057568000484,bno085,9.1953125,-0.9765625,-0.5,0.046875,-0.078125,-0.01953125,0.68170166015625,-0.26580810546875,0.63946533203125,0.236083984375,135.87738730705243,-85.6490648904769,-47.45983894747084
227,9.120061662000808,bno085,9.3125,-0.24609375,-0.5,-0.029296875,0.021484375,0.013671875,0.68157958984375,-0.26611328125,0.639404296875,0.23626708984375,135.9420087993408,-85.65864298126841,-47.56434169538381
228,9.160057164001046,bno085,8.359375,-0.9375,-0.76953125,0.029296875,0.103515625,0.0390625,0.68023681640625,-0.2655029296875,0.64093017578125,0.23651123046875,133.78876669370905,-85.84448621784502,-45.41738749893912
229,9.200058241000079,bno085,8.78515625,-0.859375,-0.65234375,-0.013671875,0.0234375,0.099609375,0.68023681640625,-0.2655029296875,0.64093017578125,0.23651123046875,133.78876669370905,-85.84448621784502,-45.41738749893912
230,9.240061112999683,bno085,9.1640625,-1.05078125,-0.38671875,-0.009765625,0.06640625,0.27734375,0.6790771484375,-0.2669677734375,0.64208984375,0.23516845703125,135.65769219075298,-86.10751392822894,-47.25528347939497
231,9.280058763000852,bno085,9.23828125,-0.74609375,-0.76953125,-0.009765625,0.06640625,0.27734375,0.6768798828125,-0.270751953125,0.6439208984375,0.23211669921875,142.00003979426418,-86.60933842078724,-53.66255314248063
232,9.320057580000139,bno085,9.1640625,-1.08984375,-0.0390625,-0.005859375,-0.12109375,-0.03125,0.67803955078125,-0.2718505859375,0.642578125,0.2310791015625,145.61893555305616,-86.46172427793661,-57.312152746987906
233,9.360057470999891,bno085,9.1640625,-1.08984375,-0.5,-0.060546875,0.01953125,0.072265625,0.67779541015625,-0.27325439453125,0.64227294921875,0.2310791015625,147.372500379517,-86.48381178509334,-59.17300536866614
234,9.400058233000891,bno085,9.31640625,-0.70703125,-0.69140625,0.0078125,-0.10546875,-0.064453125,0.67779541015625,-0.27325439453125,0.64227294921875,0.2310791015625,147.372500379517,-86.48381178509334,-59.17300536866614
235,9.440058530999522,bno085,8.96875,-1.28125,-0.38671875,0.025390625,-0.01171875,0.021484375,0.67950439453125,-0.27325439453125,0.6405029296875,0.23101806640625,148.31466781536645,-86.20722979871282,-60.11658763826297
236,9.480057811000734,bno085,9.1953125,-0.70703125,-0.5390625,0.025390625,-0.01171875,0.021484375,0.68017578125,-0.27264404296875,0.64019775390625,0.2305908203125,148.37282384159982,-86.12408688053435,-60.09052161398729
237,9.52005673900021,bno085,8.8515625,-0.74609375,-0.5,-0.017578125,0.015625,-0.09375,0.68060302734375,-0.27130126953125,0.63995361328125,0.23162841796875,145.8072655659819,-86.02890163266997,-57.49195290413285
238,9.560056981999878,bno085,8.359375,-1.51171875,-0.6171875,0.056640625,-0.009765625,0.046875,0.6812744140625,-0.27044677734375,0.63983154296875,0.23095703125,145.8957082006432,-85.95921992226278,-57.456055196888265
239,9.600057928000751,bno085,9.390625,-0.5546875,-0.5390625,0.1328125,-0.02734375,0.0234375,0.6812744140625,-0.27044677734375,0.63983154296875,0.23095703125,145.8957082006432,-85.95921992226278,-57.456055196888265
240,9.640057411999805,bno085,9.39453125,-0.9375,-0.5390625,0.1484375,0.048828125,0.0390625,0.681884765625,-0.26983642578125,0.640380859375,0.22821044921875,148.4935217157203,-85.98337875968735,-59.78089869342113
241,9.6800603949996,bno085,9.23828125,-0.66796875,-0.5390625,0.1484375,0.048828125,0.0390625,0.6817626953125,-0.26806640625,0.64227294921875,0.2254638671875,149.4834816170507,-86.14153205266322,-60.357431636615175
242,9.720058286000494,bno085,9.046875,-0.9375,-0.69140625,0.078125,0.03515625,-0.021484375,0.68182373046875,-0.265869140625,0.64349365234375,0.22442626953125,148.03354428456524,-86.20583550679206,-58.61774465004968
243,9.760058121999464,bno085,9.05078125,-1.05078125,-0.38671875,0.2265625,-0.017578125,-0.0625,0.68328857421875,-0.26190185546875,0.64459228515625,0.22137451171875,147.44308702545118,-86.14262906445842,-57.43391885509561
244,9.80005767900002,bno085,9.0078125,-1.01171875,-0.1171875,0.388671875,0.09765625,0.18359375,0.68328857421875,-0.26190185546875,0.64459228515625,0.22137451171875,147.44308702545118,-86.14262906445842,-57.43391885509561
245,9.840058682000745,bno085,8.74609375,-1.05078125,-0.65234375,0.283203125,0.103515625,0.29296875,0.6829833984375,-0.258544921875,0.6488037109375,0.2138671875,152.2456788263777,-86.53029591494276,-61.28507637612288
246,9.88005935000001,bno085,9.1640625,-0.9765625,-0.234375,0.283203125,0.103515625,0.29296875,0.6807861328125,-0.258056640625,0.6539306640625,0.20562744140625,163.5763436737588,-87.13007216839786,-71.84715300377715
247,9.920058871000947,bno085,9.125,-1.43359375,0.265625,0.18359375,0.275390625,0.208984375,0.67596435546875,-0.25750732421875,0.6607666015625,0.20037841796875,176.143496136171,-87.98881981587341,-83.89301604194162
248,9.960058132000995,bno085,9.1640625,-1.12890625,0.37890625,0.17578125,0.62890625,0.30859375,0.66510009765625,-0.2567138671875,0.67333984375,0.19573974609375,-112.64842390686316,-89.16042469123909,-154.28331909754365
249,10.000058282999817,bno085,9.1640625,-0.859375,0.265625,0.2421875,0.646484375,0.078125,0.66510009765625,-0.2567138671875,0.67333984375,0.19573974609375,-112.64842390686316,-89.16042469123909,-154.28331909754365
250,10.040059025001028,bno085,8.5859375,-1.47265625,0.15234375,0.193359375,0.443359375,0.07421875,0.6546630859375,-0.25152587890625,0.68597412109375,0.19384765625,-36.192231701982145,-88.1222796513441,129.65397653740953
251,10.080059361000167,bno085,9.01171875,-1.3984375,0.41796875,0.193359375,0.443359375,0.07421875,0.647216796875,-0.2462158203125,0.69549560546875,0.19183349609375,-23.73076855943832,-86.84677042896567,117.84375311347267
252,10.12006006699994,bno085,9.390625,-1.20703125,1.03125,0.2421875,0.431640625,-0.05859375,0.64068603515625,-0.23956298828125,0.7041015625,0.19073486328125,-15.946014158342896,-85.65609655052079,110.7595706739467
253,10.160057975999734,bno085,9.35546875,-1.85546875,2.83203125,0.3515625,1.056640625,0.15234375,0.62396240234375,-0.2305908203125,0.722412109375,0.188720703125,-11.714752173359969,-82.8149400626762,107.52096039469515
254,10.200058718999571,bno085,9.39453125,-1.703125,2.21875,0.34375,2.220703125,0.27734375,0.62396240234375,-0.2305908203125,0.722412109375,0.188720703125,-11.714752173359969,-82.8149400626762,107.52096039469515
255,10.240061350999895,bno085,8.8515625,-1.6640625,0.9921875,0.91015625,3.39453125,0.228515625,0.58575439453125,-0.2177734375,0.75726318359375,0.18994140625,-8.813834077314532,-76.8133707438059,105.66822400958638
256,10.280057316000239,bno085,10.421875,-0.859375,6.43359375,0.91015625,3.39453125,0.228515625,0.52490234375,-0.19073486328125,0.80712890625,0.19146728515625,-5.162697851153525,-67.53514732457998,104.11490276024294
257,10.320058707000499,bno085,10.421875,-0.859375,6.43359375,1.25,4.853515625,-0.341796875,0.435546875,-0.137451171875,0.8665771484375,0.20111083984375,0.9492968817587123,-54.32068293157647,101.38640210752747
258,10.360057320000124,bno085,4.8671875,-2.31640625,3.17578125,1.259765625,2.71484375,-0.982421875,0.3814697265625,-0.08319091796875,0.89471435546875,0.21685791015625,7.3564430524034075,-45.85683764436556,98.01044121198086
259,10.400057822000235,bno085,6.67578125,1.3984375,6.2421875,0.287109375,1.7421875,-2.1328125,0.3814697265625,-0.08319091796875,0.89471435546875,0.21685791015625,7.3564430524034075,-45.85683764436556,98.01044121198086
260,10.440066582999862,bno085,4.48828125,-2.5859375,7.5390625,0.103515625,1.744140625,-0.642578125,0.33837890625,-0.0455322265625,0.904296875,0.2562255859375,12.109641500532119,-38.934602243351414,92.69794173896909
261,10.480056899999909,bno085,4.796875,3.69921875,5.58984375,0.103515625,1.744140625,-0.642578125,0.302734375,-0.01837158203125,0.91119384765625,0.27880859375,14.365411992399938,-33.4971551653723,90.45710216808354
262,10.520058088000951,bno085,5.9453125,1.3984375,12.41015625,-0.033203125,0.3671875,-1.482421875,0.2926025390625,-0.00592041015625,0.9051513671875,0.3082275390625,16.336803436537213,-31.2601615342994,86.66770468539588
263,10.56005683100011,bno085,5.1015625,2.203125,9.1484375,0.67578125,0.677734375,-0.716796875,0.2777099609375,0.0115966796875,0.9027099609375,0.32843017578125,18.107146730201723,-28.44265775478515,84.34689319971697
264,10.600057146999461,bno085,4.94921875,1.62890625,8.84765625,0.79296875,0.974609375,-0.552734375,0.2777099609375,0.0115966796875,0.9027099609375,0.32843017578125,18.107146730201723,-28.44265775478515,84.34689319971697
265,10.640056168000228,bno085,3.64453125,1.515625,7.5,1.353515625,1.06640625,0.021484375,0.2625732421875,0.03997802734375,0.902587890625,0.3387451171875,20.65874130178964,-25.31063509996126,83.208167737482
266,10.680057300000044,bno085,3.875,3.62109375,8.04296875,1.353515625,1.06640625,0.021484375,0.24749755859375,0.07989501953125,0.9088134765625,0.32623291015625,23.884336525932852,-22.308648815651278,84.86853495775966
267,10.720056283000304,bno085,3.33984375,3.046875,8.23828125,-0.607421875,1.693359375,0.3203125,0.2093505859375,0.08203125,0.92047119140625,0.319580078125,21.87084211622951,-18.490885785191733,87.41654662063739
268,10.760056025999802,bno085,1.34765625,1.0546875,9.07421875,-2.271484375,1.60546875,0.34765625,0.15753173828125,0.0445556640625,0.93072509765625,0.3270263671875,15.335579830674238,-14.444780290885795,88.84059549503046
269,10.800057065000146,bno085,0.734375,-0.28515625,9.953125,-1.4765625,0.8203125,0.806640625,0.15753173828125,0.0445556640625,0.93072509765625,0.3270263671875,15.335579830674238,-14.444780290885795,88.84059549503046
270,10.840056716000618,bno085,2.57421875,1.4765625,10.87890625,-1.083984375,0.640625,0.466796875,0.12548828125,0.0126953125,0.93719482421875,0.32513427734375,10.41141937419249,-12.343585869407036,90.23492711677237
271,10.88005855099982,bno085,2.07421875,-0.015625,10.7578125,-1.083984375,0.640625,0.466796875,0.10162353515625,-0.00811767578125,0.94329833984375,0.31597900390625,7.054217788099169,-10.701831736347962,92.01913118997913
272,10.920060313001159,bno085,1.42578125,-0.36328125,9.4921875,-0.783203125,0.54296875,0.47265625,0.082275390625,-0.023681640625,0.9461669921875,0.31219482421875,4.565236463922764,-9.223843913057808,92.89779738075539
273,10.960056574000191,bno085,1.69140625,-0.24609375,9.65234375,-0.462890625,0.0390625,0.22265625,0.07647705078125,-0.035888671875,0.94769287109375,0.3077392578125,2.97038625490016,-9.073205727588663,93.58410037129586
274,11.000057613000536,bno085,1.1953125,-0.62890625,9.3828125,-0.525390625,0.140625,-0.06640625,0.07647705078125,-0.035888671875,0.94769287109375,0.3077392578125,2.97038625490016,-9.073205727588663,93.58410037129586
275,11.040058245000182,bno085,0.96484375,-1.47265625,9.26953125,-0.111328125,-0.01953125,0.107421875,0.06927490234375,-0.04815673828125,0.94561767578125,0.31414794921875,1.4161276990122744,-8.691998817784091,92.96002496990361
276,11.080060006001077,bno085,0.66015625,-1.97265625,9.80859375,-0.111328125,-0.01953125,0.107421875,0.0662841796875,-0.05584716796875,0.94537353515625,0.314208984375,0.46356589127170733,-8.647091040649546,93.02263459387444
277,11.120058841999708,bno085,1.078125,-1.3984375,10.15234375,-0.259765625,-0.052734375,0.232421875,0.06304931640625,-0.06396484375,0.94482421875,0.31494140625,-0.5389403271405192,-8.588185116817302,93.00482742813612
278,11.16005897300056,bno085,1.078125,-1.3984375,9.61328125,-0.32421875,0.171875,0.259765625,0.05645751953125,-0.07159423828125,0.94464111328125,0.31524658203125,-1.6143584842831513,-8.14876100515752,93.06418644996046
279,11.200058235001052,bno085,0.96484375,-1.47265625,9.4609375,-0.328125,0.12109375,0.29296875,0.05645751953125,-0.07159423828125,0.94464111328125,0.31524658203125,-1.6143584842831513,-8.14876100515752,93.06418644996046
280,11.240059347999704,bno085,1.00390625,-1.7421875,9.8046875,-0.22265625,0.009765625,0.25,0.05078125,-0.07861328125,0.94610595703125,0.31011962890625,-2.6302756407243617,-7.79485072190191,93.75838841115734
281,11.280058849999477,bno085,1.30859375,-1.16796875,9.46484375,-0.22265625,0.009765625,0.25,0.0487060546875,-0.0843505859375,0.9473876953125,0.30487060546875,-3.3751828576870726,-7.77792278566916,94.42888693482305
282,11.320059851999758,bno085,1.65625,-1.08984375,10.03125,-0.07421875,-0.162109375,0.060546875,0.051025390625,-0.0872802734375,0.9476318359375,0.3028564453125,-3.6326455000553355,-8.135693411781462,94.67381535573293
283,11.36005731700061,bno085,1.15625,-2.0078125,9.80859375,-0.205078125,0.33984375,-0.08984375,0.04345703125,-0.0897216796875,0.94537353515625,0.31036376953125,-4.110250733026548,-7.3931890855743045,93.81165195136477
284,11.400058893999812,bno085,0.88671875,-1.47265625,9.26953125,-0.095703125,-0.033203125,0.046875,0.04119873046875,-0.0921630859375,0.94415283203125,0.31365966796875,-4.435510983474603,-7.235309450427804,93.43074858891842
285,11.440057636000347,bno085,1.078125,-1.85546875,10.30078125,-0.125,0.1640625,0.056640625,0.04119873046875,-0.0921630859375,0.94415283203125,0.31365966796875,-4.435510983474603,-7.235309450427804,93.43074858891842
286,11.480057102000501,bno085,1.1171875,-1.58984375,10.57421875,-0.125,0.1640625,0.056640625,0.03668212890625,-0.09466552734375,0.94403076171875,0.31378173828125,-4.871581891406312,-6.833452983638414,93.43888301569756
287,11.520058733000042,bno085,0.88671875,-2.0859375,10.03125,-0.09765625,0.1484375,-0.083984375,0.0316162109375,-0.09564208984375,0.9423828125,0.3189697265625,-5.128940696445462,-6.322377892491995,92.82700125132887
288,11.560058143000788,bno085,1.00390625,-1.78125,9.9140625,-0.109375,0.107421875,-0.03515625,0.0284423828125,-0.09722900390625,0.940185546875,0.32525634765625,-5.38226383849675,-6.044215671084752,92.07631764734487
289,11.60005792300035,bno085,0.96484375,-2.125,10.07421875,-0.130859375,0.234375,-0.1015625,0.0284423828125,-0.09722900390625,0.940185546875,0.32525634765625,-5.38226383849675,-6.044215671084752,92.07631764734487
290,11.640059499000927,bno085,0.8515625,-1.89453125,9.4921875,-0.080078125,0.265625,-0.224609375,0.0225830078125,-0.09869384765625,0.937255859375,0.33367919921875,-5.717152177545084,-5.4781537928495005,91.06651351696544
291,11.680059722999431,bno085,0.2734375,-2.31640625,9.34765625,-0.080078125,0.265625,-0.224609375,0.01495361328125,-0.09918212890625,0.9349365234375,0.34033203125,-6.033447862963735,-4.68563980817901,90.2606646848601
292,11.720057317999817,bno085,0.390625,-2.125,9.95703125,-0.076171875,0.15234375,-0.12890625,0.01031494140625,-0.099853515625,0.9334716796875,0.34423828125,-6.272573710321808,-4.22082463392399,89.78320936018507
293,11.760057282999696,bno085,0.58203125,-1.93359375,10.19140625,0.013671875,0.099609375,-0.083984375,0.0076904296875,-0.0994873046875,0.93194580078125,0.3486328125,-6.32162560446682,-3.934619599941253,89.24941251180535
294,11.800060063000274,bno085,0.62109375,-2.0859375,9.9921875,0.06640625,0.00390625,-0.078125,0.0069580078125,-0.09820556640625,0.93023681640625,0.353515625,-6.197166208106711,-3.815532754245262,88.64832175736561
295,11.840058695001062,bno085,0.66015625,-2.046875,9.84375,0.09765625,0.009765625,-0.04296875,0.0069580078125,-0.09820556640625,0.93023681640625,0.353515625,-6.197166208106711,-3.815532754245262,88.64832175736561
296,11.8800592890002,bno085,0.6953125,-1.89453125,9.609375,0.09765625,0.009765625,-0.04296875,0.00750732421875,-0.0960693359375,0.92999267578125,0.354736328125,-5.940858413105501,-3.7898961315939648,88.49665645839164
297,11.920060587999615,bno085,0.58203125,-1.81640625,9.65234375,0.078125,-0.017578125,-0.044921875,0.00836181640625,-0.09442138671875,0.92901611328125,0.35772705078125,-5.719375726351797,-3.8195214127606856,88.12828204669074
298,11.96006062699962,bno085,0.46875,-1.93359375,9.6484375,0.044921875,-0.0078125,-0.025390625,0.00848388671875,-0.09356689453125,0.92864990234375,0.35882568359375,-5.619209112040495,-3.7990655282031596,87.98922569760694
299,12.000058814001022,bno085,0.50390625,-1.78125,9.69140625,0.064453125,0.015625,-0.0078125,0.00848388671875,-0.09356689453125,0.92864990234375,0.35882568359375,-5.619209112040495,-3.7990655282031596,87.98922569760694
300,12.040058520000457,bno085,0.62109375,-1.7421875,9.69140625,0.005859375,0.005859375,0.00390625,0.00836181640625,-0.092529296875,0.92779541015625,0.36138916015625,-5.504870645175173,-3.74733338217585,87.67688732280995
301,12.080059022000569,bno085,0.6953125,-1.78125,9.765625,0.052734375,0.0,0.017578125,0.0078125,-0.0924072265625,0.9276123046875,0.36181640625,-5.513396004501693,-3.684020651997646,87.62077585131873
302,12.120057506001103,bno085,0.62109375,-1.78125,9.609375,0.052734375,0.0,0.017578125,0.00799560546875,-0.09173583984375,0.92718505859375,0.363037109375,-5.43026863603013,-3.6773431206340605,87.4680311045858
303,12.160056971000813,bno085,0.54296875,-1.703125,9.6484375,0.0703125,-0.03125,-0.021484375,0.00836181640625,-0.09124755859375,0.9261474609375,0.3658447265625,-5.354450053226652,-3.700141242253725,87.12368433134799
304,12.200056917999973,bno085,0.3125,-2.0078125,10.109375,-0.015625,0.05859375,0.01171875,0.00836181640625,-0.09124755859375,0.9261474609375,0.3658447265625,-5.354450053226652,-3.700141242253725,87.12368433134799
305,12.240057216000423,bno085,0.54296875,-1.625,9.875,0.015625,-0.005859375,-0.0390625,0.0072021484375,-0.09112548828125,0.92523193359375,0.3681640625,-5.383700088586063,-3.574555173754413,86.83629674295744
306,12.280056589001106,bno085,0.6953125,-1.85546875,10.03515625,0.015625,-0.005859375,-0.0390625,0.00738525390625,-0.0909423828125,0.92498779296875,0.368896484375,-5.354229891191279,-3.587521663947064,86.74915464376558
307,12.320058868999695,bno085,0.734375,-1.7421875,9.91796875,0.142578125,-0.078125,-0.07421875,0.00836181640625,-0.090087890625,0.92462158203125,0.36993408203125,-5.218724926890456,-3.6564494935824867,86.61637708485007
308,12.360069426000337,bno085,0.8515625,-1.703125,9.6484375,0.03125,-0.05859375,0.0390625,0.006103515625,-0.0911865234375,0.92498779296875,0.36883544921875,-5.4347124615328495,-3.461190568442551,86.75666960068493
309,12.400056373000552,bno085,0.62109375,-1.97265625,9.5703125,-0.068359375,-0.08984375,0.166015625,0.006103515625,-0.0911865234375,0.92498779296875,0.36883544921875,-5.4347124615328495,-3.461190568442551,86.75666960068493
310,12.440057505000368,bno085,0.66015625,-1.6640625,9.57421875,-0.0703125,-0.08984375,0.12890625,0.0057373046875,-0.09344482421875,0.9254150390625,0.36724853515625,-5.696113737660289,-3.515365189739611,86.95624946659007
311,12.480057746999591,bno085,0.58203125,-1.55078125,9.875,-0.09375,0.025390625,0.03515625,0.00640869140625,-0.095947265625,0.92620849609375,0.36444091796875,-5.9443663353819804,-3.686761992445341,87.2977151623142
312,12.52005769400057,bno085,0.54296875,-1.97265625,9.84375,-0.09375,0.025390625,0.03515625,0.00579833984375,-0.09747314453125,0.9263916015625,0.36370849609375,-6.135496053490635,-3.684308706096098,87.39497637076218
313,12.560058233000746,bno085,0.6953125,-1.81640625,10.41796875,0.2578125,-0.248046875,0.0078125,0.01239013671875,-0.09454345703125,0.92626953125,0.36456298828125,-5.543746434325562,-4.266718229778562,87.28022067915069
314,12.600059382999461,bno085,1.04296875,-1.28125,9.953125,0.650390625,-0.525390625,-0.2265625,0.029052734375,-0.08489990234375,0.92510986328125,0.36895751953125,-3.7907404041591475,-5.640128421031163,86.68003402981743
315,12.640057552000144,bno085,1.26953125,-1.28125,10.41796875,1.501953125,-1.0390625,-0.416015625,0.029052734375,-0.08489990234375,0.92510986328125,0.36895751953125,-3.7907404041591475,-5.640128421031163,86.68003402981743
316,12.680059202999473,bno085,2.15234375,-0.32421875,10.65234375,2.54296875,-1.548828125,-0.583984375,0.066650390625,-0.060791015625,0.92254638671875,0.375244140625,0.4530416126665024,-8.5889552381075,85.5368877298766
317,12.720059482000579,bno085,2.95703125,1.20703125,10.875,2.54296875,-1.548828125,-0.583984375,0.12591552734375,-0.0167236328125,0.91583251953125,0.3809814453125,7.951347200829517,-12.839884407331729,83.5405539112976
318,12.760058948000733,bno085,2.87890625,1.09375,11.7578125,4.21875,-2.0,-0.916015625,0.20538330078125,0.05865478515625,0.8978271484375,0.385009765625,20.2620418837966,-17.386707794624986,79.73781245933775
319,12.800059189999956,bno085,2.91796875,1.66796875,6.546875,3.826171875,-1.294921875,-0.75,0.269775390625,0.13739013671875,0.87335205078125,0.38153076171875,32.67570421837125,-19.74923695116067,75.97314784506983
320,12.84005948900085,bno085,2.61328125,2.51171875,6.35546875,3.36328125,-1.01171875,-1.056640625,0.269775390625,0.13739013671875,0.87335205078125,0.38153076171875,32.67570421837125,-19.74923695116067,75.97314784506983
321,12.88005762099965,bno085,3.33984375,6.45703125,6.51171875,2.89453125,-0.8671875,-1.294921875,0.32501220703125,0.20965576171875,0.84197998046875,0.3760986328125,44.392841148507095,-20.928794565814133,71.98211935278039
322,12.920060067001032,bno085,2.3828125,5.23046875,7.1953125,2.89453125,-0.8671875,-1.294921875,0.36114501953125,0.27093505859375,0.80694580078125,0.3807373046875,53.999174525085,-19.85346951205889,67.80335828785536
323,12.960057607000635,bno085,2.421875,6.76171875,3.94140625,2.220703125,-0.005859375,-0.5703125,0.3790283203125,0.32000732421875,0.78326416015625,0.374755859375,60.762110850624445,-18.372213424251996,66.41703548307447
324,13.000057405000916,bno085,2.19140625,7.72265625,5.0546875,2.19140625,-0.19140625,-0.6796875,0.3984375,0.3665771484375,0.755859375,0.3681640625,67.53169266324556,-16.966774739992683,64.89612714838599
325,13.040059647999442,bno085,3.109375,8.75390625,2.6015625,1.818359375,0.080078125,-0.28125,0.3984375,0.3665771484375,0.755859375,0.3681640625,67.53169266324556,-16.966774739992683,64.89612714838599
326,13.080059334999532,bno085,3.453125,10.171875,3.13671875,1.966796875,-0.06640625,-0.76171875,0.410400390625,0.40606689453125,0.73553466796875,0.35455322265625,72.9580519785609,-15.953087325658988,64.8216508793868
327,13.120058059999792,bno085,2.91796875,8.60546875,2.75390625,1.966796875,-0.06640625,-0.76171875,0.42156982421875,0.4471435546875,0.708740234375,0.346435546875,78.6631215812471,-14.229708349035178,64.20225877721911
328,13.160057802000665,bno085,2.7265625,8.5625,1.56640625,1.78125,-0.03125,-0.251953125,0.43243408203125,0.48162841796875,0.68597412109375,0.3323974609375,83.7500684014709,-13.350906085867052,64.17421684016554
329,13.200057785999888,bno085,2.6875,8.37109375,0.53515625,1.861328125,-0.01171875,-0.234375,0.444091796875,0.51336669921875,0.6627197265625,0.3162841796875,88.77291415748297,-12.801624492443997,64.16676968560793
330,13.240058659001079,bno085,2.15234375,8.75,-1.57421875,1.240234375,-0.0703125,0.033203125,0.444091796875,0.51336669921875,0.6627197265625,0.3162841796875,88.77291415748297,-12.801624492443997,64.16676968560793
331,13.280058050000662,bno085,1.921875,9.671875,-0.73046875,0.458984375,0.103515625,0.046875,0.45440673828125,0.533935546875,0.64605712890625,0.3016357421875,92.4379631306351,-12.869933917137073,64.13869101828718
332,13.32005792200107,bno085,1.76953125,9.5546875,-0.9609375,0.458984375,0.103515625,0.046875,0.45721435546875,0.54296875,0.6400146484375,0.29412841796875,93.91068434123844,-12.932033913712413,64.39342402812491
333,13.3600569980008,bno085,2.61328125,9.44921875,-0.34765625,0.037109375,0.05078125,0.08203125,0.4580078125,0.54376220703125,0.639892578125,0.2916259765625,94.10819769025849,-13.127031186831257,64.49886195964709
334,13.400055760001123,bno085,2.6875,9.13671875,-0.0390625,-0.18359375,0.0703125,-0.10546875,0.455078125,0.54266357421875,0.64202880859375,0.29364013671875,93.65254687015306,-12.937456791093753,64.6841394232028
335,13.440070429000116,bno085,2.07421875,8.5234375,0.11328125,-0.091796875,0.013671875,0.12890625,0.455078125,0.54266357421875,0.64202880859375,0.29364013671875,93.65254687015306,-12.937456791093753,64.6841394232028
336,13.48005780099993,bno085,2.3828125,9.4453125,-0.0390625,-0.072265625,0.0859375,0.0234375,0.45458984375,0.53973388671875,0.64495849609375,0.2933349609375,93.23103332264063,-13.18700736882432,64.77965134717958
337,13.520056581000972,bno085,2.34375,8.90625,-0.73046875,-0.072265625,0.0859375,0.0234375,0.455078125,0.5372314453125,0.64630126953125,0.294189453125,92.96012067558605,-13.323765083899506,64.66516178979953
338,13.56005887900028,bno085,2.3828125,9.29296875,-0.234375,-0.134765625,0.02734375,0.099609375,0.4554443359375,0.53375244140625,0.64886474609375,0.2943115234375,92.5581846977747,-13.603913894328896,64.632460260081
339,13.600059845000942,bno085,2.3828125,9.09765625,0.1875,-0.09375,0.087890625,0.09765625,0.455078125,0.531494140625,0.65155029296875,0.2930908203125,92.24177648005713,-13.887441621530916,64.7930946116712
340,13.640057865000927,bno085,2.8046875,9.484375,-0.078125,0.02734375,0.005859375,0.154296875,0.455078125,0.531494140625,0.65155029296875,0.2930908203125,92.24177648005713,-13.887441621530916,64.7930946116712
341,13.680076718999771,bno085,2.99609375,9.515625,-0.078125,0.12890625,-0.04296875,-0.03515625,0.4566650390625,0.52984619140625,0.6529541015625,0.29052734375,92.21233563811717,-14.310419635918723,64.83518531685381
342,13.720058221000727,bno085,2.6875,9.3671875,-0.00390625,0.12890625,-0.04296875,-0.03515625,0.45782470703125,0.5316162109375,0.65081787109375,0.29010009765625,92.55818596746403,-14.244330980335514,64.71556561313929
343,13.760058871999718,bno085,2.3828125,8.9453125,0.15234375,0.12890625,0.005859375,-0.0859375,0.45794677734375,0.534912109375,0.64813232421875,0.28997802734375,92.98734083065462,-13.99739536588989,64.69748145013891
344,13.800059762999808,bno085,2.34375,8.984375,-0.1953125,0.15234375,-0.005859375,-0.072265625,0.45806884765625,0.537841796875,0.6458740234375,0.289306640625,93.37428375931287,-13.826811930108653,64.71549702112404
345,13.840057580000575,bno085,2.3828125,8.71484375,-0.30859375,-0.08984375,0.076171875,0.17578125,0.45806884765625,0.537841796875,0.6458740234375,0.289306640625,93.37428375931287,-13.826811930108653,64.71549702112404
346,13.880059471001005,bno085,2.61328125,9.09375,-0.1953125,-0.1640625,0.080078125,0.072265625,0.4581298828125,0.536376953125,0.6478271484375,0.28759765625,93.20402316093683,-14.107153373577063,64.85988254698097
347,13.920056066001052,bno085,2.34375,8.9453125,0.11328125,-0.1640625,0.080078125,0.072265625,0.45684814453125,0.53326416015625,0.65179443359375,0.2864990234375,92.68161207296374,-14.417492347286963,65.12191570420335
348,13.960056957001143,bno085,2.57421875,9.17578125,0.03515625,0.015625,0.056640625,0.046875,0.4561767578125,0.53271484375,0.6534423828125,0.28485107421875,92.55007667511593,-14.592241067677994,65.3407850106155
349,14.000059088000853,bno085,2.87890625,8.90625,-0.00390625,0.046875,0.0390625,0.0859375,0.4569091796875,0.53314208984375,0.65338134765625,0.28302001953125,92.68986673863954,-14.752660799084461,65.40348708122927
350,14.040057960999548,bno085,2.91796875,8.640625,0.265625,0.013671875,0.06640625,0.072265625,0.4569091796875,0.53314208984375,0.65338134765625,0.28302001953125,92.68986673863954,-14.752660799084461,65.40348708122927
351,14.08005796299949,bno085,3.03515625,8.2578125,-0.26953125,-0.064453125,0.021484375,0.0,0.45770263671875,0.533447265625,0.6533203125,0.28118896484375,92.82090193148596,-14.922909286227732,65.45297870575578
352,14.120058317001167,bno085,2.99609375,8.02734375,-0.5,-0.064453125,0.021484375,0.0,0.4576416015625,0.53289794921875,0.65350341796875,0.281982421875,92.74108828875615,-14.89200611447045,65.40300986472053
353,14.160056949000136,bno085,2.95703125,7.37890625,-0.76953125,-0.17578125,-0.21875,0.048828125,0.4595947265625,0.52862548828125,0.6536865234375,0.286376953125,92.38669598583112,-14.88783841624367,64.84032806307087
354,14.20005717300046,bno085,2.87890625,8.5625,0.1875,-0.46484375,-0.150390625,0.0859375,0.46063232421875,0.5191650390625,0.658203125,0.29168701171875,91.29040196857301,-15.184114352527892,64.34353406222702
355,14.240057768000042,bno085,2.19140625,8.484375,0.83984375,-0.375,-0.130859375,0.21484375,0.46063232421875,0.5191650390625,0.658203125,0.29168701171875,91.29040196857301,-15.184114352527892,64.34353406222702
356,14.28005862200007,bno085,2.3046875,9.37109375,0.265625,-0.478515625,-0.037109375,0.24609375,0.4615478515625,0.50933837890625,0.663818359375,0.2947998046875,90.16159509654388,-15.706508776966993,64.03891614921028
357,14.32005758699961,bno085,2.3828125,9.33203125,0.11328125,-0.478515625,-0.037109375,0.24609375,0.46630859375,0.49603271484375,0.6683349609375,0.29974365234375,89.03176620273179,-16.470686429244058,63.14790357729856
358,14.36005764500078,bno085,2.95703125,10.17578125,0.6484375,-0.390625,-0.05859375,0.33984375,0.4718017578125,0.48236083984375,0.6727294921875,0.3035888671875,87.97627858145577,-17.39247507631881,62.258560733519786
359,14.400056387999939,bno085,3.83984375,11.28515625,0.3046875,-0.361328125,0.060546875,0.248046875,0.474609375,0.47247314453125,0.6767578125,0.30584716796875,87.1089795470727,-18.067780997423547,61.799380374026605
360,14.440056704999733,bno085,4.06640625,12.24609375,0.609375,0.013671875,-0.15234375,-0.05859375,0.474609375,0.47247314453125,0.6767578125,0.30584716796875,87.1089795470727,-18.067780997423547,61.799380374026605
361,14.48005817000012,bno085,3.109375,10.1328125,0.53515625,-0.171875,0.12109375,-0.34765625,0.4771728515625,0.468994140625,0.67529296875,0.31036376953125,86.97181401520992,-18.027526628719524,61.116146562377
362,14.520057097999597,bno085,1.578125,7.640625,0.37890625,-0.171875,0.12109375,-0.34765625,0.47271728515625,0.4683837890625,0.673828125,0.32110595703125,86.38268603233877,-16.959274604372478,60.7001332053719
363,14.56005708200064,bno085,2.91796875,9.0234375,1.453125,-0.025390625,-0.080078125,0.134765625,0.47381591796875,0.46624755859375,0.67474365234375,0.32073974609375,86.25564562560022,-17.201563129327795,60.620112983945205
364,14.600057806001132,bno085,3.33984375,9.40625,1.1484375,0.09375,-0.04296875,0.126953125,0.4775390625,0.46429443359375,0.674072265625,0.31939697265625,86.44161050933515,-17.605475486417248,60.30424696831701
365,14.640059956000187,bno085,3.2265625,8.94921875,0.80078125,0.052734375,0.015625,0.064453125,0.4775390625,0.46429443359375,0.674072265625,0.31939697265625,86.44161050933515,-17.605475486417248,60.30424696831701
366,14.680058772999473,bno085,3.1875,8.87109375,0.83984375,-0.001953125,-0.025390625,0.072265625,0.48065185546875,0.4630126953125,0.6724853515625,0.31988525390625,86.63709487106232,-17.769272845605148,59.892111668375414
367,14.720059479001065,bno085,3.1484375,8.98828125,1.03125,-0.001953125,-0.025390625,0.072265625,0.4832763671875,0.4605712890625,0.6717529296875,0.32110595703125,86.64592138635558,-17.94519646684099,59.48943382969443
368,14.760056480999992,bno085,3.03515625,8.828125,0.6484375,0.001953125,0.037109375,0.052734375,0.48486328125,0.4588623046875,0.67120361328125,0.32208251953125,86.623960957593,-18.04346870849754,59.20607784394815
369,14.800059335000697,bno085,3.03515625,8.7890625,0.80078125,0.037109375,0.00390625,0.0625,0.48797607421875,0.45654296875,0.66961669921875,0.32415771484375,86.70471123730782,-18.148290184800878,58.668785797669685
370,14.840058060000956,bno085,3.1875,8.94921875,0.6484375,0.013671875,0.005859375,0.041015625,0.48797607421875,0.45654296875,0.66961669921875,0.32415771484375,86.70471123730782,-18.148290184800878,58.668785797669685
371,14.88006071000018,bno085,3.1484375,8.9453125,0.6484375,0.041015625,-0.017578125,0.044921875,0.48968505859375,0.45513916015625,0.66912841796875,0.3245849609375,86.73731886880066,-18.278434564384586,58.43184965117829
372,14.920058601001074,bno085,3.30078125,8.94921875,0.76171875,0.041015625,-0.017578125,0.044921875,0.4931640625,0.45257568359375,0.66705322265625,0.3271484375,86.83541951919152,-18.36422335181405,57.79043025536849
373,14.96005778899962,bno085,3.64453125,9.2109375,0.37890625,0.044921875,0.091796875,-0.0078125,0.494384765625,0.45172119140625,0.6658935546875,0.328857421875,86.87357350011172,-18.317167311546733,57.49326853534868
374,15.000057254001149,bno085,3.109375,8.828125,-0.0390625,0.037109375,0.123046875,-0.0703125,0.4930419921875,0.45281982421875,0.66546630859375,0.3302001953125,86.839940676125,-18.064462376733687,57.53060332016028
375,15.040058812001007,bno085,3.109375,8.984375,-0.078125,-0.03515625,0.013671875,-0.111328125,0.4930419921875,0.45281982421875,0.66546630859375,0.3302001953125,86.839940676125,-18.064462376733687,57.53060332016028
376,15.08006098000078,bno085,3.26171875,9.171875,-0.5,-0.13671875,0.0078125,-0.09765625,0.49249267578125,0.45306396484375,0.6644287109375,0.33270263671875,86.79701800595782,-17.800042544819128,57.3682107318148
377,15.120058149001125,bno085,3.03515625,8.98828125,-0.84375,-0.13671875,0.0078125,-0.09765625,0.49139404296875,0.45159912109375,0.66400146484375,0.33721923828125,86.49350418076064,-17.47967195092942,57.108884119719484
378,15.160057447999861,bno085,2.57421875,9.17578125,-0.8828125,-0.298828125,-0.15625,-0.044921875,0.49151611328125,0.44580078125,0.66455078125,0.34368896484375,85.83858879774408,-17.377818364047876,56.54037841391938
379,15.200056949999635,bno085,2.19140625,8.90625,-0.42578125,-0.439453125,-0.091796875,0.025390625,0.4898681640625,0.43841552734375,0.66748046875,0.34967041015625,84.81455103099907,-17.394233870614606,56.21455511551065
380,15.240061693000825,bno085,3.4921875,9.9765625,1.22265625,-0.2578125,-0.263671875,0.130859375,0.4898681640625,0.43841552734375,0.66748046875,0.34967041015625,84.81455103099907,-17.394233870614606,56.21455511551065
381,15.280060028000662,bno085,3.80078125,10.015625,1.109375,-0.134765625,-0.33203125,-0.189453125,0.4937744140625,0.4310302734375,0.66705322265625,0.354248046875,84.43517045090954,-17.716422380924072,55.356543212655446
382,15.32005965999997,bno085,3.109375,8.75390625,0.9921875,-0.134765625,-0.33203125,-0.189453125,0.4959716796875,0.4278564453125,0.66326904296875,0.3619384765625,84.32298741785114,-17.352309432302274,54.375792797425916
383,15.360058161999405,bno085,2.23046875,6.9140625,1.0703125,-0.357421875,-0.384765625,-0.123046875,0.4967041015625,0.421142578125,0.6614990234375,0.3719482421875,83.6609009088099,-17.034793435350583,53.36828981177946
384,15.40005868300068,bno085,2.65234375,6.57421875,4.44140625,-0.388671875,-0.2109375,0.052734375,0.4974365234375,0.4119873046875,0.66302490234375,0.37841796875,82.75552376898247,-17.244233747938992,52.6857410418679
385,15.440058666999903,bno085,2.87890625,7.453125,4.671875,-0.177734375,-0.111328125,0.31640625,0.4974365234375,0.4119873046875,0.66302490234375,0.37841796875,82.75552376898247,-17.244233747938992,52.6857410418679
386,15.480057427999782,bno085,2.91796875,8.98828125,4.40234375,0.009765625,0.08203125,0.15625,0.4998779296875,0.40399169921875,0.66644287109375,0.37786865234375,82.19268857308354,-18.039574688798478,52.46863030414304
387,15.52005798600112,bno085,3.41796875,9.13671875,1.0703125,0.009765625,0.08203125,0.15625,0.50048828125,0.4024658203125,0.66888427734375,0.37432861328125,82.1063242860939,-18.500519475288208,52.73732986939611
388,15.560057581000365,bno085,3.4921875,8.56640625,0.49609375,0.04296875,0.05859375,0.00390625,0.49951171875,0.40374755859375,0.669677734375,0.37286376953125,82.12979605541746,-18.4947903986887,52.996485352017274
389,15.600057805000688,bno085,3.30078125,8.40625,0.34375,-0.095703125,-0.02734375,0.0,0.4991455078125,0.40289306640625,0.669677734375,0.37420654296875,81.99519646475225,-18.433965707038986,52.909438932818766
390,15.640057270000398,bno085,3.03515625,8.60546875,1.109375,-0.1796875,-0.052734375,0.0078125,0.4991455078125,0.40289306640625,0.669677734375,0.37420654296875,81.99519646475225,-18.433965707038986,52.909438932818766
391,15.680057513000065,bno085,3.109375,8.87109375,2.3359375,-0.09765625,-0.015625,-0.015625,0.49908447265625,0.39984130859375,0.670166015625,0.37677001953125,81.66506239513872,-18.460970973466562,52.68685945061232
392,15.720059348999712,bno085,3.03515625,8.6015625,1.94921875,-0.09765625,-0.015625,-0.015625,0.4986572265625,0.3984375,0.67034912109375,0.37847900390625,81.46663879294049,-18.413017298890956,52.5768322751957
393,15.760058035999464,bno085,2.99609375,8.4453125,1.60546875,0.0078125,-0.021484375,0.025390625,0.49920654296875,0.3983154296875,0.66998291015625,0.37841796875,81.51671192517153,-18.44306346326209,52.506589709982855
394,15.800057835000189,bno085,3.109375,8.6796875,1.72265625,0.0078125,-0.044921875,0.0546875,0.49993896484375,0.3975830078125,0.670166015625,0.3779296875,81.5256421374481,-18.570732507917846,52.46921983090673
395,15.84005946599973,bno085,2.91796875,8.5625,1.60546875,0.09765625,-0.04296875,0.091796875,0.49993896484375,0.3975830078125,0.670166015625,0.3779296875,81.5256421374481,-18.570732507917846,52.46921983090673
396,15.880058542999905,bno085,3.03515625,8.60546875,1.7578125,0.0625,0.01953125,0.095703125,0.5013427734375,0.39752197265625,0.670166015625,0.3760986328125,81.68400491248696,-18.780450556075454,52.47165631923528
397,15.920058711999445,bno085,3.41796875,8.87109375,1.796875,0.0625,0.01953125,0.095703125,0.502197265625,0.3975830078125,0.6708984375,0.3736572265625,81.79278911384456,-19.019514401235835,52.60817247078799
398,15.96005660300034,bno085,3.26171875,8.8671875,1.53125,0.056640625,0.091796875,-0.001953125,0.50152587890625,0.3994140625,0.67132568359375,0.3719482421875,81.90885362238207,-19.000415341360892,52.85861195711202
399,16.00005701200098,bno085,3.1875,8.984375,1.64453125,0.111328125,0.0,0.017578125,0.502197265625,0.4013671875,0.67047119140625,0.370361328125,82.1937965937438,-18.996602111788153,52.91183658790053
400,16.040058700000372,bno085,3.109375,9.2109375,1.72265625,0.173828125,-0.103515625,0.09765625,0.502197265625,0.4013671875,0.67047119140625,0.370361328125,82.1937965937438,-18.996602111788153,52.91183658790053
401,16.080059719999554,bno085,4.296875,10.36328125,0.6484375,0.6328125,-0.865234375,0.783203125,0.5062255859375,0.40216064453125,0.66839599609375,0.36767578125,82.75385041770747,-19.28766162632793,52.65882606731161
402,16.12005944500015,bno085,4.640625,12.73828125,2.10546875,0.6328125,-0.865234375,0.783203125,0.52996826171875,0.39715576171875,0.65869140625,0.35711669921875,85.14013835894654,-21.284742799856495,50.63086090310951
403,16.160056964999967,bno085,4.83203125,11.6640625,2.37109375,0.697265625,-0.712890625,0.673828125,0.5545654296875,0.394287109375,0.646484375,0.34503173828125,88.06074848702535,-23.11682777727856,48.404694238418564
404,16.20005794899953,bno085,5.29296875,9.484375,0.5703125,0.66796875,-0.564453125,0.646484375,0.57501220703125,0.39276123046875,0.63623046875,0.33221435546875,90.7615812126407,-24.698839888109017,46.62407767803231
405,16.240061933000106,bno085,4.83203125,7.60546875,0.6484375,0.642578125,-0.166015625,-0.048828125,0.57501220703125,0.39276123046875,0.63623046875,0.33221435546875,90.7615812126407,-24.698839888109017,46.62407767803231
406,16.280058435000683,bno085,3.53125,5.69140625,-0.234375,0.486328125,0.017578125,0.033203125,0.5843505859375,0.400146484375,0.62713623046875,0.32421875,92.88551094409922,-24.84882968458196,45.91117644183724
407,16.320057937000456,bno085,3.83984375,6.03515625,-0.5,0.486328125,0.017578125,0.033203125,0.5870361328125,0.4083251953125,0.62322998046875,0.3165283203125,94.17002031104859,-24.844393715308307,46.131063865614706
408,16.360057883999616,bno085,3.26171875,4.8828125,-1.99609375,0.228515625,0.294921875,-0.189453125,0.583740234375,0.4168701171875,0.6224365234375,0.3131103515625,94.61527007082601,-24.382043215493603,46.89256098832712
409,16.400057292999918,bno085,3.875,6.61328125,-1.421875,-0.013671875,0.060546875,-0.013671875,0.5823974609375,0.4183349609375,0.6231689453125,0.312255859375,94.58578366185903,-24.326423520641264,47.16192994270381
410,16.44005861000005,bno085,3.83984375,6.875,-1.265625,-0.2109375,0.1875,-0.05859375,0.5823974609375,0.4183349609375,0.6231689453125,0.312255859375,94.58578366185903,-24.326423520641264,47.16192994270381
411,16.48005574200033,bno085,4.94921875,8.94921875,-0.1953125,-0.1796875,0.158203125,0.02734375,0.5771484375,0.418212890625,0.62713623046875,0.31414794921875,93.81792016519198,-24.130377238695257,47.773772497585405
412,16.520056762999957,bno085,5.1796875,8.9453125,-0.078125,-0.1796875,0.158203125,0.02734375,0.5731201171875,0.41595458984375,0.6319580078125,0.3148193359375,93.01390500620914,-24.241387581454312,48.30852976461243
413,16.560055599000407,bno085,4.83203125,8.75390625,-0.00390625,-0.064453125,0.09765625,-0.0859375,0.569580078125,0.4169921875,0.6336669921875,0.31646728515625,92.6202232141366,-23.96324984371702,48.684117147891776
414,16.600055508000878,bno085,4.6796875,8.7109375,-0.00390625,-0.021484375,0.064453125,-0.150390625,0.5665283203125,0.4190673828125,0.63409423828125,0.318359375,92.40611276624101,-23.570735667888492,48.95989311136258
415,16.640058250999573,bno085,4.22265625,8.06640625,-0.00390625,0.013671875,0.0234375,-0.107421875,0.56439208984375,0.421142578125,0.63385009765625,0.32000732421875,92.32278043566855,-23.210670682757392,49.12862397691412
416,16.68005816100049,bno085,4.14453125,8.140625,-0.1171875,-0.01953125,-0.021484375,-0.056640625,0.56439208984375,0.421142578125,0.63385009765625,0.32000732421875,92.32278043566855,-23.210670682757392,49.12862397691412
417,16.72005562599952,bno085,4.06640625,8.1015625,0.11328125,-0.01953125,-0.021484375,-0.056640625,0.56341552734375,0.4212646484375,0.6337890625,0.32147216796875,92.19252399821036,-23.047234615501793,49.1280903592763
418,16.760057461000542,bno085,3.9921875,8.296875,0.83984375,-0.16015625,0.103515625,0.015625,0.56085205078125,0.419677734375,0.63665771484375,0.32244873046875,91.67191953579534,-23.06963167207245,49.41979479764217
419,16.800055556001098,bno085,4.60546875,8.6015625,1.26171875,-0.099609375,0.146484375,0.05078125,0.55810546875,0.4185791015625,0.64019775390625,0.3216552734375,91.19154797763255,-23.207433895747364,49.87978083798703
420,16.840055781000046,bno085,5.21875,8.828125,1.33984375,-0.005859375,0.154296875,-0.02734375,0.55810546875,0.4185791015625,0.64019775390625,0.3216552734375,91.19154797763255,-23.207433895747364,49.87978083798703
421,16.880058967999503,bno085,5.1796875,8.7890625,1.68359375,0.353515625,-0.232421875,0.0,0.55511474609375,0.41973876953125,0.642578125,0.32061767578125,90.92124947938365,-23.162232522084906,50.38752402978227
422,16.920056637000016,bno085,4.375,8.68359375,2.52734375,0.353515625,-0.232421875,0.0,0.56048583984375,0.42333984375,0.63665771484375,0.31829833984375,92.0398897224284,-23.131135462361502,49.81204677809805
423,16.960057991000212,bno085,4.10546875,8.94921875,2.79296875,0.6796875,-0.294921875,0.109375,0.572509765625,0.4300537109375,0.6251220703125,0.3106689453125,94.45519335013813,-23.36179398587381,48.70420230753166
424,17.00005832700117,bno085,3.953125,7.94921875,1.30078125,1.08203125,-0.38671875,0.064453125,0.58453369140625,0.44256591796875,0.61090087890625,0.29876708984375,97.59459947680125,-23.399110640734392,47.86473785389469
425,17.040055921001112,bno085,4.3359375,7.1796875,-2.875,0.82421875,0.5625,-0.08984375,0.58538818359375,0.4591064453125,0.60565185546875,0.2823486328125,99.71801502713284,-23.453923357557013,48.943508091934746
426,17.080056701001013,bno085,3.609375,6.1484375,-5.3671875,0.69921875,-0.107421875,0.18359375,0.58538818359375,0.4591064453125,0.60565185546875,0.2823486328125,99.71801502713284,-23.453923357557013,48.943508091934746
427,17.12005805499939,bno085,4.06640625,6.875,-5.09765625,0.69921875,-0.107421875,0.18359375,0.5916748046875,0.4671630859375,0.59893798828125,0.2701416015625,101.68179294413115,-23.869764234047153,48.87759853815306
428,17.160057520999544,bno085,5.6015625,8.44921875,-5.2890625,-0.01171875,0.126953125,0.111328125,0.5916748046875,0.46624755859375,0.60150146484375,0.26593017578125,101.64147794583361,-24.366474118189434,49.17810847924657
429,17.20005535600103,bno085,5.140625,8.52734375,-3.44921875,-0.287109375,0.14453125,-0.025390625,0.58819580078125,0.4635009765625,0.60589599609375,0.26849365234375,100.79392693452364,-24.386464636788368,49.52973457806708
430,17.240056599001036,bno085,4.94921875,8.71484375,-2.37890625,-0.2734375,-0.099609375,-0.0625,0.58819580078125,0.4635009765625,0.60589599609375,0.26849365234375,100.79392693452364,-24.386464636788368,49.52973457806708
431,17.280055453000386,bno085,4.71875,8.484375,-1.11328125,-0.265625,0.091796875,-0.052734375,0.5863037109375,0.459716796875,0.60809326171875,0.27392578125,100.02694518717483,-24.21172720204649,49.41874367514078
432,17.320055362999483,bno085,4.44921875,8.2578125,-1.0,-0.16015625,-0.013671875,0.02734375,0.58331298828125,0.45697021484375,0.61126708984375,0.2779541015625,99.24249037968688,-24.08013073916049,49.58494439066918
433,17.360056513000018,bno085,4.56640625,8.33203125,-0.80859375,-0.16015625,-0.013671875,0.02734375,0.582275390625,0.454345703125,0.61322021484375,0.28021240234375,98.77664591797337,-24.104990714661795,49.585280697998044
434,17.400055330001123,bno085,4.83203125,8.68359375,-0.73046875,-0.173828125,0.017578125,-0.005859375,0.5806884765625,0.4517822265625,0.61553955078125,0.28240966796875,98.24291182564592,-24.12393986628163,49.654183250039246
435,17.440055610000854,bno085,4.83203125,8.60546875,-0.65234375,-0.11328125,-0.0390625,-0.080078125,0.57940673828125,0.4508056640625,0.61614990234375,0.28533935546875,97.9201245141576,-23.93004834692991,49.62941589405879
436,17.48006066800008,bno085,4.6796875,8.40625,-0.38671875,-0.11328125,-0.0390625,-0.080078125,0.57940673828125,0.4508056640625,0.61614990234375,0.28533935546875,97.9201245141576,-23.93004834692991,49.62941589405879
437,17.520059189000676,bno085,4.71875,8.5234375,-0.4609375,-0.029296875,0.01171875,-0.078125,0.57806396484375,0.45111083984375,0.616455078125,0.28692626953125,97.74656735312371,-23.74599793741189,49.70495498784039
438,17.560057116999815,bno085,4.3359375,7.94921875,-0.73046875,0.00390625,-0.04296875,0.00390625,0.57818603515625,0.4510498046875,0.61602783203125,0.28778076171875,97.7472235209048,-23.67119159747353,49.62756925778609
439,17.600058100999377,bno085,4.18359375,7.91015625,-0.234375,-0.134765625,0.126953125,-0.150390625,0.5748291015625,0.45159912109375,0.61767578125,0.2900390625,97.3134151960788,-23.391475033656565,49.93797007209456
440,17.64005601000099,bno085,4.03125,7.60546875,-0.38671875,-0.181640625,0.2421875,-0.193359375,0.5748291015625,0.45159912109375,0.61767578125,0.2900390625,97.3134151960788,-23.391475033656565,49.93797007209456
441,17.68005708599958,bno085,4.10546875,7.7578125,-0.38671875,-0.05078125,0.076171875,0.044921875,0.568115234375,0.45318603515625,0.6214599609375,0.29266357421875,96.53368252691943,-22.96059762343944,50.696530282990174
442,17.72005723700022,bno085,4.7578125,8.75,-0.6171875,0.005859375,0.052734375,-0.0234375,0.56658935546875,0.45233154296875,0.62384033203125,0.29193115234375,96.23741364739067,-23.09859764950101,50.98013202974926
443,17.76006005400086,bno085,4.60546875,8.484375,-0.921875,0.005859375,0.052734375,-0.0234375,0.5654296875,0.45233154296875,0.6251220703125,0.291259765625,96.08552419308626,-23.150959865435706,51.187433418753656
444,17.80005725999945,bno085,4.6796875,8.18359375,-1.3828125,-0.05078125,-0.126953125,-0.068359375,0.56573486328125,0.45159912109375,0.62420654296875,0.29388427734375,96.02058748319426,-22.97089243214773,50.94862837084014
445,17.840058318000956,bno085,4.87109375,7.90625,-2.109375,-0.66796875,-0.435546875,-0.416015625,0.56573486328125,0.45159912109375,0.62420654296875,0.29388427734375,96.02058748319426,-22.97089243214773,50.94862837084014
446,17.880055801000708,bno085,5.33203125,5.921875,-2.33984375,-2.13671875,0.09375,-1.10546875,0.5623779296875,0.44384765625,0.623291015625,0.31353759765625,94.53806823363016,-21.76673211043228,49.8813578820652
447,17.92005687799974,bno085,2.765625,1.515625,-1.95703125,-2.13671875,0.09375,-1.10546875,0.53497314453125,0.42852783203125,0.63507080078125,0.356201171875,89.07079602848601,-18.73746424780156,49.9762972362539
448,17.960057157999472,bno085,1.30859375,4.50390625,2.48828125,-2.2265625,-0.365234375,-1.125,0.507080078125,0.40802001953125,0.6439208984375,0.4022216796875,83.40457704565414,-15.67792750561273,49.21532763168966
449,18.00005691899969,bno085,1.04296875,11.78515625,5.28515625,-0.4765625,0.45703125,-0.583984375,0.4912109375,0.40667724609375,0.64508056640625,0.4208984375,81.42022743127869,-13.666370725025928,49.2506180209739
450,18.04005797699938,bno085,2.0390625,13.62109375,4.6328125,0.3046875,0.388671875,-0.34765625,0.4912109375,0.40667724609375,0.64508056640625,0.4208984375,81.42022743127869,-13.666370725025928,49.2506180209739
451,18.080058311999892,bno085,2.3828125,13.2734375,1.30078125,0.12890625,0.404296875,1.44140625,0.48565673828125,0.4180908203125,0.641357421875,0.421875,81.99255548518262,-12.423554185277416,49.79829659485773
452,18.120058352000342,bno085,9.46875,26.98828125,3.21484375,0.12890625,0.404296875,1.44140625,0.49932861328125,0.4283447265625,0.63275146484375,0.40838623046875,84.6288911324143,-13.11853197765709,49.52791910106836
453,18.160059169000306,bno085,-0.9140625,3.85546875,-3.2578125,-0.1796875,0.703125,-1.228515625,0.49224853515625,0.44873046875,0.61236572265625,0.4259033203125,85.95234593873873,-9.4384238203199,48.65220046374452
454,18.200059152000904,bno085,1.38671875,7.984375,1.1484375,-0.353515625,0.025390625,0.517578125,0.490478515625,0.43658447265625,0.61962890625,0.4300537109375,84.44382553657034,-10.116271036398627,48.433236633904656
455,18.240062468999895,bno085,4.7578125,12.625,2.87109375,0.0625,-0.0078125,-0.205078125,0.490478515625,0.43658447265625,0.61962890625,0.4300537109375,84.44382553657034,-10.116271036398627,48.433236633904656
456,18.280058563999773,bno085,1.1171875,7.2578125,1.109375,0.064453125,0.033203125,0.123046875,0.489501953125,0.43328857421875,0.619873046875,0.43402099609375,83.97250486232267,-10.011503184684926,48.13346308219189
457,18.320061047999843,bno085,2.34375,9.6328125,1.68359375,0.173828125,-0.06640625,0.0859375,0.49176025390625,0.431884765625,0.6175537109375,0.4361572265625,84.0630533267623,-9.984261927152962,47.65381179952058
458,18.360058180000124,bno085,2.6875,9.7109375,1.4140625,0.173828125,-0.06640625,0.0859375,0.4976806640625,0.43060302734375,0.61480712890625,0.43463134765625,84.58695120639184,-10.374249630747128,47.121305091087905
459,18.400058274999537,bno085,2.11328125,8.56640625,0.609375,-0.025390625,0.021484375,0.1171875,0.50018310546875,0.4278564453125,0.61395263671875,0.4356689453125,84.57378101967684,-10.57696503194332,46.7185037833404
460,18.440057944000728,bno085,2.45703125,9.5546875,1.22265625,-0.0625,-0.0078125,0.0390625,0.50018310546875,0.4278564453125,0.61395263671875,0.4356689453125,84.57378101967684,-10.57696503194332,46.7185037833404
461,18.480056686999887,bno085,2.15234375,8.90625,1.375,-0.03515625,0.01953125,0.0625,0.50140380859375,0.42486572265625,0.6142578125,0.436767578125,84.39459487356845,-10.771507928647281,46.46031538187364
462,18.52005696699962,bno085,2.15234375,9.0234375,1.4140625,-0.107421875,0.0390625,0.107421875,0.50299072265625,0.4217529296875,0.61383056640625,0.43853759765625,84.24304361924645,-10.918503912426752,46.087226086465364
463,18.56005852400085,bno085,2.53515625,9.3671875,0.9921875,-0.107421875,0.0390625,0.107421875,0.5042724609375,0.41778564453125,0.614501953125,0.43994140625,83.97346014409528,-11.175676346111889,45.7889010033372
464,18.600057341000138,bno085,2.8046875,9.59765625,0.953125,-0.44140625,0.1640625,-0.09765625,0.4976806640625,0.41351318359375,0.61883544921875,0.44537353515625,82.7776198756587,-10.916894675695323,46.00342025050361
465,18.640055973000926,bno085,2.765625,9.2109375,0.7265625,-0.826171875,0.275390625,-0.298828125,0.482421875,0.4066162109375,0.6265869140625,0.45751953125,80.36245931836078,-10.042622683443632,46.48549499402365
466,18.680058198000552,bno085,2.11328125,8.8671875,1.4140625,-0.921875,0.263671875,-0.2421875,0.482421875,0.4066162109375,0.6265869140625,0.45751953125,80.36245931836078,-10.042622683443632,46.48549499402365
467,18.720059032999416,bno085,1.65625,9.0625,2.140625,-1.236328125,0.2265625,-0.224609375,0.465087890625,0.396728515625,0.63604736328125,0.47088623046875,77.48223114690491,-9.210891692478064,46.96701481670197
468,18.7600582390005,bno085,1.69140625,9.29296875,1.375,-1.236328125,0.2265625,-0.224609375,0.44512939453125,0.3819580078125,0.64697265625,0.4871826171875,73.9132322194158,-8.391294986910443,47.274668932525316
469,18.800057407999702,bno085,1.84765625,9.17578125,-0.30859375,-2.9140625,0.1484375,-0.54296875,0.4033203125,0.3426513671875,0.66748046875,0.52386474609375,65.9150934162294,-6.958365981159397,47.12243931451777
470,18.840057707000597,bno085,1.65625,1.74609375,1.76171875,-7.40625,0.560546875,0.095703125,0.3037109375,0.233642578125,0.71917724609375,0.57958984375,46.77986806753875,-6.22408628906411,48.16992277777967
471,18.8800567090002,bno085,3.109375,3.46875,12.21875,-7.5078125,0.912109375,0.2734375,0.3037109375,0.233642578125,0.71917724609375,0.57958984375,46.77986806753875,-6.22408628906411,48.16992277777967
472,18.920057915000143,bno085,4.06640625,7.26171875,17.08203125,-4.03125,0.96484375,-1.888671875,0.1788330078125,0.10626220703125,0.7587890625,0.6171875,25.318254743455956,-4.808506973711997,49.97720122668
473,18.960056473000805,bno085,-0.0703125,0.05859375,7.234375,-4.03125,0.96484375,-1.888671875,0.087646484375,0.046875,0.74310302734375,0.6617431640625,13.114719809776537,-0.49516968526177235,46.312049418392796
474,19.000057919000028,bno085,-0.7578125,1.015625,8.46484375,-2.728515625,1.462890625,-0.345703125,0.004638671875,0.01239013671875,0.7352294921875,0.67767333984375,3.70385562190282,4.049261927817039,44.907126800133206
475,19.04005745900031,bno085,-0.8359375,-0.59375,9.80859375,-1.806640625,0.419921875,-0.287109375,-0.0364990234375,-0.013671875,0.72900390625,0.68341064453125,-1.7655499132380872,5.4969385105240125,43.9187749239648
476,19.080058015999384,bno085,-0.109375,-1.05078125,10.4140625,-0.517578125,0.173828125,-0.015625,-0.0364990234375,-0.013671875,0.72900390625,0.68341064453125,-1.7655499132380872,5.4969385105240125,43.9187749239648
477,19.12005764800051,bno085,-0.0703125,-2.19921875,10.1484375,-0.373046875,0.275390625,-0.1171875,-0.05377197265625,-0.0245361328125,0.72747802734375,0.68353271484375,-4.046023320953415,6.087060194952211,43.73495673565725
478,19.1600575020002,bno085,-0.94921875,-3.12109375,9.65234375,-0.373046875,0.275390625,-0.1171875,-0.06591796875,-0.0284423828125,0.72479248046875,0.68524169921875,-5.365472264415423,6.784851950814864,43.336843450962945
479,19.20005755999955,bno085,-0.64453125,-2.8125,9.765625,1.15234375,-0.380859375,0.162109375,-0.04278564453125,-0.01629638671875,0.72711181640625,0.68499755859375,-2.5025834664342845,5.816227144720731,43.62300369849801
480,19.24006124799962,bno085,-0.109375,-0.66796875,9.87890625,1.54296875,-0.919921875,-0.15625,-0.00225830078125,-0.0037841796875,0.72613525390625,0.68756103515625,1.7105531953987685,3.429003063591084,43.335277158972445
481,19.280066065000938,bno085,1.921875,3.4296875,9.0703125,1.79296875,-1.435546875,-1.267578125,-0.00225830078125,-0.0037841796875,0.72613525390625,0.68756103515625,1.7105531953987685,3.429003063591084,43.335277158972445
482,19.320056955999462,bno085,4.14453125,5.1171875,12.0234375,1.26171875,-0.712890625,-3.24609375,0.04803466796875,0.00384521484375,0.70562744140625,0.70697021484375,6.202130449195371,0.08975984833732373,39.844436012647726
483,19.36005719900095,bno085,3.4921875,2.01171875,9.2265625,1.26171875,-0.712890625,-3.24609375,0.0809326171875,0.01593017578125,0.64935302734375,0.7559814453125,9.657869339189746,-0.7227452984565494,31.06227845205761
484,19.400057942000785,bno085,-0.875,-0.8984375,8.46484375,0.046875,-0.794921875,-2.48046875,0.091552734375,0.00946044921875,0.59979248046875,0.7947998046875,9.960535878307343,-1.3675272179495517,23.73428857507407
485,19.44005753700003,bno085,0.16015625,0.3671875,6.77734375,-0.982421875,-1.751953125,-1.802734375,0.09906005859375,-0.027587890625,0.5601806640625,0.82196044921875,8.16320183007008,-4.854093261120989,18.029789260984767
486,19.480058076000205,bno085,0.8515625,-1.7421875,11.6015625,-1.9609375,-0.685546875,-0.193359375,0.09906005859375,-0.027587890625,0.5601806640625,0.82196044921875,8.16320183007008,-4.854093261120989,18.029789260984767
487,19.520056114999534,bno085,1.80859375,0.78515625,9.00390625,-0.955078125,-1.240234375,0.236328125,0.0841064453125,-0.06829833984375,0.54669189453125,0.830322265625,4.179245742727575,-7.699459104933941,16.409730150059488
488,19.560056599000745,bno085,3.1484375,0.90234375,8.84375,-0.955078125,-1.240234375,0.236328125,0.0797119140625,-0.10406494140625,0.5499267578125,0.8248291015625,1.4534733912731643,-10.885351169255724,17.29158610373105
489,19.60005762000037,bno085,2.57421875,-1.05078125,10.875,1.095703125,-2.8984375,1.826171875,0.10516357421875,-0.1473388671875,0.56280517578125,0.8065185546875,0.8759903364864644,-16.73353801602877,19.708558376489144
490,19.640058140999827,bno085,4.296875,0.6328125,9.23046875,-0.2265625,2.43359375,-0.65234375,0.07354736328125,-0.10528564453125,0.5626220703125,0.81671142578125,0.6776514722344485,-10.627899773423655,19.131078155616315
491,19.680059717000404,bno085,-1.5234375,-3.08203125,2.2578125,-2.078125,13.27734375,-10.310546875,0.07354736328125,-0.10528564453125,0.5626220703125,0.81671142578125,0.6776514722344485,-10.627899773423655,19.131078155616315
492,19.720058292999965,bno085,1.5,2.43359375,11.6796875,-0.173828125,0.57421875,-2.6796875,0.0006103515625,-0.00433349609375,0.48828125,0.8726806640625,-0.38548108520754454,3.6957600546499396,8.594267958020666
493,19.760055888000352,bno085,0.08203125,0.2890625,9.76953125,-0.173828125,0.57421875,-2.6796875,-0.0050048828125,0.00067138671875,0.46307373046875,0.88629150390625,-0.9157959154127835,4.478404812342612,5.294764994642227
494,19.800058835000527,bno085,0.08203125,-0.2109375,9.91796875,-0.14453125,0.341796875,-0.234375,-0.01385498046875,0.0078125,0.4552001953125,0.8902587890625,-1.5242662910219857,5.656002788969815,4.260777009810993
495,19.840058540999962,bno085,-0.14453125,-0.24609375,9.87890625,0.00390625,-0.005859375,-0.02734375,-0.01458740234375,0.0086669921875,0.45452880859375,0.89056396484375,-1.56211514638288,5.77975194655386,4.171753085941793
496,19.880058210001152,bno085,-0.03125,-0.2109375,9.91796875,-0.009765625,0.001953125,0.001953125,-0.01458740234375,0.0086669921875,0.45452880859375,0.89056396484375,-1.56211514638288,5.77975194655386,4.171753085941793
497,19.92005897099989,bno085,-0.0703125,-0.24609375,9.875,-0.001953125,-0.0078125,0.013671875,-0.0145263671875,0.00860595703125,0.45458984375,0.89056396484375,-1.5583635224980343,5.770612471717458,4.180684594908733
498,19.960058677001143,bno085,-0.0703125,-0.24609375,9.9140625,-0.001953125,-0.0078125,0.013671875,-0.0147705078125,0.00885009765625,0.45489501953125,0.890380859375,-1.567207362837203,5.8088774815094535,4.218971653652927
499,20.000059976000557,bno085,-0.109375,-0.2109375,9.87890625,-0.005859375,0.0078125,0.009765625,-0.01495361328125,0.00897216796875,0.455078125,0.8902587890625,-1.5775159637349967,5.831206225897081,4.241544938200594
500,20.040058737000436,bno085,-0.0703125,-0.2109375,9.9140625,-0.001953125,-0.01953125,0.0,-0.0147705078125,0.0087890625,0.45513916015625,0.8902587890625,-1.567648975479487,5.803229850466671,4.2506436495387465
501,20.080056962000526,bno085,-0.0703125,-0.24609375,9.875,-0.00390625,0.00390625,0.001953125,-0.0147705078125,0.0087890625,0.45513916015625,0.8902587890625,-1.567648975479487,5.803229850466671,4.2506436495387465
502,20.12005657500049,bno085,-0.0703125,-0.2109375,9.9140625,-0.005859375,0.0,-0.001953125,-0.01483154296875,0.0087890625,0.4552001953125,0.89019775390625,-1.573206518914548,5.806431618923186,4.2575561124355135
503,20.16005679999944,bno085,-0.0703125,-0.24609375,9.9140625,-0.005859375,0.0,-0.001953125,-0.01470947265625,0.00848388671875,0.46112060546875,0.88714599609375,-1.5103416441881699,5.782450952156254,5.024775690461859
504,20.200058487000206,bno085,-0.109375,-0.2109375,9.91796875,-0.005859375,0.01171875,0.00390625,-0.0146484375,0.00811767578125,0.47113037109375,0.88189697265625,-1.4110203811669553,5.763380093990187,6.328530134242799
505,20.240059767000275,bno085,-0.18359375,-0.2109375,9.91796875,-0.01171875,0.029296875,0.017578125,-0.01519775390625,0.00811767578125,0.4796142578125,0.8773193359375,-1.3702422161265262,5.809953270378682,7.43879664701368
506,20.280058231999647,bno085,-0.22265625,-0.24609375,9.875,0.005859375,0.017578125,0.0,-0.01519775390625,0.00811767578125,0.4796142578125,0.8773193359375,-1.3702422161265262,5.809953270378682,7.43879664701368
507,20.320058383000287,bno085,-0.22265625,-0.24609375,9.875,0.0,-0.001953125,0.001953125,-0.01513671875,0.0081787109375,0.48577880859375,0.8739013671875,-1.2902403747898576,5.823797983229733,8.248917679441293
508,20.3600560520008,bno085,-0.22265625,-0.24609375,9.9140625,0.0,-0.001953125,0.001953125,-0.0150146484375,0.00787353515625,0.49237060546875,0.8702392578125,-1.2194477782110325,5.7975595075889546,9.120280052408239
509,20.40005866499996,bno085,-0.22265625,-0.24609375,9.9140625,-0.005859375,-0.015625,0.044921875,-0.01470947265625,0.007080078125,0.50018310546875,0.86578369140625,-1.1445538497796999,5.713042964975404,10.15676594706662
510,20.440057538000474,bno085,-0.14453125,-0.24609375,9.91796875,0.001953125,-0.013671875,0.009765625,-0.0142822265625,0.00628662109375,0.5076904296875,0.86138916015625,-1.0622686899336045,5.619766867342253,11.15701481357313
511,20.48005746600029,bno085,-0.14453125,-0.24609375,9.91796875,0.001953125,-0.0078125,-0.001953125,-0.0142822265625,0.00628662109375,0.5076904296875,0.86138916015625,-1.0622686899336045,5.619766867342253,11.15701481357313
512,20.520057597999767,bno085,-0.14453125,-0.24609375,9.91796875,-0.00390625,0.00390625,-0.001953125,-0.0140380859375,0.00592041015625,0.5115966796875,0.85906982421875,-1.0150805019790092,5.5740569288484,11.679503140947128
513,20.56005759999971,bno085,-0.109375,-0.24609375,9.91796875,-0.00390625,0.00390625,-0.001953125,-0.01397705078125,0.00567626953125,0.51495361328125,0.85711669921875,-0.9852188932480302,5.550453701156475,12.131250512072178
514,20.600058158001048,bno085,-0.109375,-0.24609375,9.87890625,0.00390625,-0.009765625,-0.00390625,-0.01385498046875,0.0052490234375,0.5196533203125,0.854248046875,-0.945158890315567,5.506056841175549,12.762493367205975
515,20.640056771000673,bno085,-0.109375,-0.24609375,9.91796875,-0.005859375,0.0,0.0,-0.01385498046875,0.0048828125,0.5247802734375,0.85113525390625,-0.9088147086539573,5.475203559218364,13.455084537365373
516,20.680057773000954,bno085,-0.109375,-0.2109375,9.87890625,-0.001953125,0.00390625,-0.00390625,-0.01385498046875,0.0048828125,0.5247802734375,0.85113525390625,-0.9088147086539573,5.475203559218364,13.455084537365373
517,20.720057738999458,bno085,-0.109375,-0.2109375,9.87890625,-0.005859375,0.00390625,-0.00390625,-0.013916015625,0.0047607421875,0.52777099609375,0.8492431640625,-0.888140102445408,5.469396297958131,13.858777190393639
518,20.760059611000543,bno085,-0.14453125,-0.24609375,9.91796875,-0.005859375,0.00390625,-0.00390625,-0.01397705078125,0.00457763671875,0.53057861328125,0.8475341796875,-0.8732012972216346,5.457756262973762,14.240682877728705
519,20.800055947000146,bno085,-0.109375,-0.24609375,9.91796875,-0.001953125,-0.013671875,0.001953125,-0.0137939453125,0.00408935546875,0.53436279296875,0.8450927734375,-0.8422518472390373,5.401758730919471,14.753377555890241
520,20.84005528200032,bno085,-0.109375,-0.2109375,9.87890625,0.00390625,-0.001953125,-0.001953125,-0.01361083984375,0.00384521484375,0.5380859375,0.8427734375,-0.7972757730836028,5.369534886652123,15.262115202684651
521,20.880059007000455,bno085,-0.109375,-0.2109375,9.91796875,-0.005859375,0.001953125,-0.001953125,-0.01361083984375,0.00384521484375,0.5380859375,0.8427734375,-0.7972757730836028,5.369534886652123,15.262115202684651
522,20.92005556500044,bno085,-0.109375,-0.2109375,9.91796875,0.0,0.009765625,0.00390625,-0.0135498046875,0.00360107421875,0.54119873046875,0.84075927734375,-0.7712118278274739,5.34392185685061,15.687009304014527
523,20.960059789000297,bno085,-0.109375,-0.24609375,9.87890625,0.0,0.009765625,0.00390625,-0.013671875,0.003662109375,0.54302978515625,0.839599609375,-0.7583773038276729,5.358457149244938,15.938419375040251
524,21.000058773001,bno085,-0.14453125,-0.2109375,9.87890625,-0.005859375,-0.001953125,0.0,-0.013671875,0.00347900390625,0.54571533203125,0.83782958984375,-0.7392979723327052,5.342034503739058,16.306069610826576
525,21.040058257000055,bno085,-0.109375,-0.24609375,9.87890625,0.001953125,-0.005859375,0.0,-0.01361083984375,0.00323486328125,0.5487060546875,0.83587646484375,-0.7147773037873258,5.316064366776604,16.717176822514997
526,21.080055128999447,bno085,-0.109375,-0.2109375,9.91796875,0.001953125,0.001953125,0.0,-0.01361083984375,0.00323486328125,0.5487060546875,0.83587646484375,-0.7147773037873258,5.316064366776604,16.717176822514997
527,21.120056447000024,bno085,-0.109375,-0.2109375,9.91796875,0.00390625,-0.001953125,-0.001953125,-0.0135498046875,0.0030517578125,0.5516357421875,0.833984375,-0.6871869794022009,5.295909033916558,17.12174439843
528,21.160055430000284,bno085,-0.109375,-0.2109375,9.91796875,0.00390625,-0.001953125,-0.001953125,-0.013427734375,0.00286865234375,0.553466796875,0.832763671875,-0.6663529943527515,5.2712044343745585,17.37421850487731
529,21.20005583999955,bno085,-0.109375,-0.2109375,9.87890625,0.0,0.001953125,-0.001953125,-0.01336669921875,0.002685546875,0.55596923828125,0.83111572265625,-0.6437927487449423,5.250578273347799,17.72066453331567
530,21.240057656999852,bno085,-0.109375,-0.2109375,9.87890625,0.00390625,0.001953125,-0.001953125,-0.01336669921875,0.00262451171875,0.55853271484375,0.829345703125,-0.6186507811187488,5.24504845996486,18.074676873244933
531,21.28005651100102,bno085,-0.109375,-0.2109375,9.87890625,-0.005859375,0.005859375,0.0,-0.01336669921875,0.00262451171875,0.55853271484375,0.829345703125,-0.6186507811187488,5.24504845996486,18.074676873244933
532,21.320055698999568,bno085,-0.109375,-0.24609375,9.87890625,0.009765625,-0.005859375,-0.001953125,-0.013427734375,0.00250244140625,0.560546875,0.8280029296875,-0.6094023602921244,5.237738375269129,18.354673502432373
533,21.360055368000758,bno085,-0.109375,-0.2109375,9.87890625,0.009765625,-0.005859375,-0.001953125,-0.01336669921875,0.00238037109375,0.56134033203125,0.82745361328125,-0.6024695759613793,5.2222715113330365,18.464560454269233
534,21.40005525900051,bno085,-0.14453125,-0.2109375,9.87890625,0.0,-0.001953125,-0.001953125,-0.01336669921875,0.00225830078125,0.56341552734375,0.8260498046875,-0.5867954728503213,5.210918307021724,18.75343355772832
535,21.440055372000643,bno085,-0.14453125,-0.2109375,9.87890625,-0.00390625,0.00390625,-0.001953125,-0.01336669921875,0.002197265625,0.565673828125,0.82452392578125,-0.5650991825326938,5.205314081557297,19.068651814566397
536,21.480055818999972,bno085,-0.14453125,-0.2109375,9.87890625,0.0,0.00390625,-0.00390625,-0.01336669921875,0.002197265625,0.565673828125,0.82452392578125,-0.5650991825326938,5.205314081557297,19.068651814566397
537,21.520055506000062,bno085,-0.14453125,-0.24609375,9.91796875,-0.001953125,-0.009765625,-0.00390625,-0.01336669921875,0.0020751953125,0.5677490234375,0.8231201171875,-0.5494475308684093,5.193869607570245,19.358912630874496
538,21.560056211999836,bno085,-0.109375,-0.2109375,9.87890625,-0.001953125,-0.009765625,-0.00390625,-0.0133056640625,0.00189208984375,0.56854248046875,0.822509765625,-0.5466690988853601,5.172318174112686,19.468217511246255
539,21.60005613999965,bno085,-0.109375,-0.2109375,9.87890625,0.0,-0.01171875,-0.001953125,-0.01318359375,0.0015869140625,0.5703125,0.82135009765625,-0.5350139017599019,5.1357701166089464,19.717167813381636
540,21.640055494999615,bno085,-0.109375,-0.2109375,9.91796875,0.0,-0.001953125,0.001953125,-0.01312255859375,0.00140380859375,0.572265625,0.8199462890625,-0.5192360851795104,5.114153702311517,19.989760151802468
541,21.68005625600017,bno085,-0.109375,-0.2109375,9.87890625,0.001953125,0.0,0.0,-0.01312255859375,0.00140380859375,0.572265625,0.8199462890625,-0.5192360851795104,5.114153702311517,19.989760151802468
542,21.720056239999394,bno085,-0.109375,-0.2109375,9.87890625,0.005859375,-0.001953125,0.0,-0.01312255859375,0.0013427734375,0.57354736328125,0.81903076171875,-0.5087831523847822,5.108157459071041,20.16918980646828
543,21.760055705000923,bno085,-0.109375,-0.2109375,9.87890625,0.005859375,-0.001953125,0.0,-0.01300048828125,0.00128173828125,0.57476806640625,0.8182373046875,-0.48751637515229723,5.09444872396519,20.34199643686163
544,21.80005522600004,bno085,-0.109375,-0.2109375,9.87890625,-0.001953125,-0.001953125,0.0,-0.01300048828125,0.001220703125,0.57611083984375,0.8172607421875,-0.47640889412558773,5.088308721028365,20.530123960351876
545,21.84005591300047,bno085,-0.109375,-0.2109375,9.87890625,0.00390625,0.0,-0.00390625,-0.012939453125,0.00115966796875,0.57745361328125,0.81634521484375,-0.4595457573876649,5.07837019168341,20.719855619227754
546,21.880056416001025,bno085,-0.109375,-0.2109375,9.91796875,0.00390625,-0.021484375,0.001953125,-0.012939453125,0.00115966796875,0.57745361328125,0.81634521484375,-0.4595457573876649,5.07837019168341,20.719855619227754
547,21.920055455000693,bno085,-0.0703125,-0.2109375,9.9140625,0.009765625,-0.01171875,0.0,-0.01251220703125,0.00067138671875,0.57904052734375,0.815185546875,-0.43418282467636554,5.003768679038189,20.942115501519588
548,21.96005862399943,bno085,-0.0703125,-0.2109375,9.9140625,0.009765625,-0.01171875,0.0,-0.01202392578125,0.00042724609375,0.58013916015625,0.81439208984375,-0.39256814248210303,4.948074499217073,21.096351898150477
549,22.00005597800009,bno085,-0.14453125,-0.2109375,9.91796875,0.048828125,-0.091796875,0.001953125,-0.00970458984375,-0.00067138671875,0.58172607421875,0.8133544921875,-0.2320108783647231,4.690696950355356,21.31989788919903
550,22.04005594299997,bno085,-0.03125,-0.09375,9.87890625,0.171875,-0.330078125,0.017578125,-0.0032958984375,-0.00390625,0.58343505859375,0.8121337890625,0.1661477982395339,3.9599801410685695,21.55421301167812
551,22.080056037999384,bno085,-0.0703125,-0.09375,9.9140625,0.00390625,-0.009765625,0.03125,-0.0032958984375,-0.00390625,0.58343505859375,0.8121337890625,0.1661477982395339,3.9599801410685695,21.55421301167812
552,22.120055985000363,bno085,-0.0703125,-0.1328125,9.9140625,0.1796875,-0.357421875,0.0234375,-0.0028076171875,-0.00439453125,0.58477783203125,0.81121826171875,0.19223339706576054,3.8805559836092822,21.744712884806955
553,22.16005530199982,bno085,-0.0703125,-0.0546875,9.80859375,0.1796875,-0.357421875,0.0234375,0.0037841796875,-0.00836181640625,0.5858154296875,0.81036376953125,0.5476819078440053,3.0681576330410025,21.882645292119975
554,22.20005530399976,bno085,-0.0703125,-0.0546875,9.87890625,0.013671875,-0.07421875,0.01953125,0.00628662109375,-0.01092529296875,0.58740234375,0.8092041015625,0.6212407919965255,2.6594851203762615,22.105865710609205
