sample,time_s,sensor,accel_x_mps2,accel_y_mps2,accel_z_mps2,gyro_x_radps,gyro_y_radps,gyro_z_radps,quat_i,quat_j,quat_k,quat_real,roll_deg,pitch_deg,yaw_deg
0,0.040056712000023253,bno085,0.27734375,0.1953125,9.953125,0.00390625,-0.00390625,0.001953125,0.01422119140625,-0.00555419921875,0.48284912109375,0.87554931640625,-2.2759464673425924e-05,-5.827423372424475e-05,-6.703499230506597e-07
1,0.08005612800025119,bno085,0.27734375,0.1953125,9.953125,0.005859375,-0.001953125,0.0,0.0146484375,-0.00567626953125,0.497802734375,0.86712646484375,0.05903179509664013,-0.017954863778496966,1.9663785053477227
2,0.12005502500005605,bno085,0.203125,0.1953125,9.953125,-0.0078125,-0.00390625,0.001953125,0.0146484375,-0.00567626953125,0.497802734375,0.86712646484375,0.05903179509664013,-0.017954863778496966,1.9663785053477227
3,0.16005445900009363,bno085,0.27734375,0.1953125,9.953125,-0.00390625,0.005859375,0.0,0.01458740234375,-0.00567626953125,0.49810791015625,0.866943359375,0.053433929947901485,-0.014123406379018974,2.006431032400134
4,0.20005389400012064,bno085,0.203125,0.1953125,9.953125,-0.00390625,0.005859375,0.0,0.01470947265625,-0.00592041015625,0.49688720703125,0.86767578125,0.04980499924935367,-0.046750048248575524,1.846733015925088
5,0.24005575399996815,bno085,0.27734375,0.16015625,9.953125,0.00390625,0.001953125,0.001953125,0.0146484375,-0.00579833984375,0.49603271484375,0.8681640625,0.04935465583075196,-0.032149650900569524,1.73361680711388
6,0.2800550770002701,bno085,0.31640625,0.1953125,9.95703125,0.0,-0.005859375,0.0,0.01446533203125,-0.00616455078125,0.4971923828125,0.86749267578125,0.012075005155921673,-0.05675884398245398,1.887158295097856
7,0.32005575199991654,bno085,0.203125,0.234375,9.91796875,0.001953125,-0.001953125,0.0,0.01446533203125,-0.00616455078125,0.4971923828125,0.86749267578125,0.012075005155921673,-0.05675884398245398,1.887158295097856
8,0.3600543719999223,bno085,0.203125,0.1953125,9.953125,0.0,0.00390625,-0.001953125,0.0146484375,-0.00653076171875,0.49749755859375,0.8673095703125,0.009866849743575594,-0.10322717588443463,1.928192742779408
9,0.4000541210002666,bno085,0.2421875,0.16015625,9.9140625,0.0,0.00390625,-0.001953125,0.0146484375,-0.00653076171875,0.49749755859375,0.8673095703125,0.009866849743575594,-0.10322717588443463,1.928192742779408
10,0.44005527700028324,bno085,0.27734375,0.1953125,9.9140625,-0.001953125,0.0,0.001953125,0.0146484375,-0.00653076171875,0.49749755859375,0.8673095703125,0.009866849743575594,-0.10322717588443463,1.928192742779408
11,0.4800549710002997,bno085,0.27734375,0.1953125,9.9140625,0.0,-0.005859375,-0.001953125,0.0146484375,-0.00653076171875,0.49749755859375,0.8673095703125,0.009866849743575594,-0.10322717588443463,1.928192742779408
12,0.520056163999925,bno085,0.2421875,0.1953125,9.953125,0.00390625,0.001953125,0.0,0.0146484375,-0.00653076171875,0.49749755859375,0.8673095703125,0.009866849743575594,-0.10322717588443463,1.928192742779408
13,0.5600547280000683,bno085,0.203125,0.234375,9.95703125,0.00390625,0.001953125,0.0,0.0146484375,-0.00653076171875,0.49749755859375,0.8673095703125,0.009866849743575594,-0.10322717588443463,1.928192742779408
14,0.6000544769999578,bno085,0.2421875,0.1953125,9.953125,0.00390625,0.001953125,0.0,0.0146484375,-0.00653076171875,0.49749755859375,0.8673095703125,0.009866849743575594,-0.10322717588443463,1.928192742779408
15,0.6400551890001225,bno085,0.31640625,0.16015625,9.91796875,-0.005859375,-0.005859375,0.001953125,0.01458740234375,-0.00653076171875,0.49749755859375,0.8673095703125,0.003797599649631258,-0.09974785556160219,1.9281505864742716
16,0.6800554569999804,bno085,0.27734375,0.1953125,9.953125,0.001953125,-0.001953125,-0.001953125,0.0146484375,-0.0064697265625,0.49749755859375,0.8673095703125,0.013345196035764293,-0.0971611961465825,1.9280522797705766
17,0.7200548539999545,bno085,0.27734375,0.1953125,9.9140625,0.005859375,0.00390625,-0.001953125,0.0146484375,-0.0064697265625,0.49749755859375,0.8673095703125,0.013345196035764293,-0.0971611961465825,1.9280522797705766
18,0.760055826000098,bno085,0.2421875,0.1953125,9.953125,0.005859375,0.001953125,0.001953125,0.0146484375,-0.0064697265625,0.4974365234375,0.8673095703125,0.01320412028190653,-0.09727027820377632,1.9189827436021951
19,0.8000555749999876,bno085,0.2421875,0.1953125,9.953125,-0.00390625,-0.0078125,0.0,0.0146484375,-0.0064697265625,0.4974365234375,0.8673095703125,0.01320412028190653,-0.09727027820377632,1.9189827436021951
20,0.8400604910002585,bno085,0.27734375,0.16015625,9.953125,-0.00390625,-0.0078125,0.0,0.0147705078125,-0.0064697265625,0.4974365234375,0.8673095703125,0.025342704741478404,-0.10422803970468342,1.9190674877815288
21,0.8800567769999361,bno085,0.27734375,0.1953125,9.953125,-0.001953125,-0.001953125,0.001953125,0.01483154296875,-0.00640869140625,0.49749755859375,0.8673095703125,0.03503146157590737,-0.10153309589848125,1.9280403152693626
22,0.9200606740000694,bno085,0.2421875,0.234375,9.95703125,0.00390625,0.005859375,0.0,0.01483154296875,-0.00640869140625,0.49749755859375,0.8673095703125,0.03503146157590737,-0.10153309589848125,1.9280403152693626
23,0.9600551270000324,bno085,0.2421875,0.1953125,9.953125,-0.001953125,0.00390625,0.0,0.01483154296875,-0.00640869140625,0.49749755859375,0.8673095703125,0.03503146157590737,-0.10153309589848125,1.9280403152693626
24,1.000056357000176,bno085,0.2421875,0.1953125,9.953125,-0.001953125,0.00390625,0.0,0.01483154296875,-0.00640869140625,0.49749755859375,0.8673095703125,0.03503146157590737,-0.10153309589848125,1.9280403152693626
25,1.0400543290002133,bno085,0.27734375,0.16015625,9.953125,0.001953125,-0.0078125,0.0,0.01483154296875,-0.00640869140625,0.49749755859375,0.8673095703125,0.03503146157590737,-0.10153309589848125,1.9280403152693626
26,1.080055800000082,bno085,0.27734375,0.1953125,9.953125,-0.00390625,-0.00390625,-0.001953125,0.014892578125,-0.00640869140625,0.49749755859375,0.8673095703125,0.04110082347808069,-0.10501239055806105,1.9280829023394048
27,1.1200550860003204,bno085,0.2421875,0.1953125,9.953125,0.001953125,0.005859375,0.0,0.01483154296875,-0.00640869140625,0.49749755859375,0.8673095703125,0.03503146157590737,-0.10153309589848125,1.9280403152693626
28,1.1600555760001043,bno085,0.2421875,0.1953125,9.9140625,0.001953125,0.001953125,0.0,0.01483154296875,-0.00640869140625,0.49749755859375,0.8673095703125,0.03503146157590737,-0.10153309589848125,1.9280403152693626
29,1.2000535470001523,bno085,0.27734375,0.1953125,9.953125,0.001953125,-0.005859375,0.0,0.01483154296875,-0.0064697265625,0.49749755859375,0.8673095703125,0.031553113444054356,-0.10759911863212232,1.9281793948361965
30,1.2400560370001585,bno085,0.27734375,0.16015625,9.9140625,0.001953125,-0.005859375,0.0,0.01483154296875,-0.0064697265625,0.49749755859375,0.8673095703125,0.031553113444054356,-0.10759911863212232,1.9281793948361965
31,1.2800550460001432,bno085,0.2421875,0.1953125,9.953125,0.0,0.0,0.0,0.01483154296875,-0.0064697265625,0.49749755859375,0.8673095703125,0.031553113444054356,-0.10759911863212232,1.9281793948361965
32,1.3200535910000326,bno085,0.2421875,0.1953125,9.9140625,0.0,0.0,0.0,0.01483154296875,-0.0064697265625,0.49749755859375,0.8673095703125,0.031553113444054356,-0.10759911863212232,1.9281793948361965
33,1.3600544509999963,bno085,0.2421875,0.1953125,9.953125,0.0,0.0,0.0,0.01483154296875,-0.0064697265625,0.49749755859375,0.8673095703125,0.031553113444054356,-0.10759911863212232,1.9281793948361965
34,1.4000542000003406,bno085,0.2421875,0.1953125,9.953125,0.0,0.0,0.0,0.01483154296875,-0.0064697265625,0.49749755859375,0.8673095703125,0.031553113444054356,-0.10759911863212232,1.9281793948361965
35,1.4400541899999553,bno085,0.2421875,0.16015625,9.9140625,0.0,0.0,0.0,0.01483154296875,-0.0064697265625,0.49749755859375,0.8673095703125,0.031553113444054356,-0.10759911863212232,1.9281793948361965
36,1.4800541990002785,bno085,0.2421875,0.1953125,9.953125,0.0,0.0,0.0,0.0147705078125,-0.0064697265625,0.49749755859375,0.8673095703125,0.025483780136501294,-0.10411981076446258,1.9281370232139587
37,1.5200550770000518,bno085,0.2421875,0.1953125,9.9140625,0.0,0.0,0.0,0.0147705078125,-0.0064697265625,0.49749755859375,0.8673095703125,0.025483780136501294,-0.10411981076446258,1.9281370232139587
38,1.5600548820002587,bno085,0.2421875,0.1953125,9.953125,0.0,0.0,0.0,0.0147705078125,-0.0064697265625,0.49749755859375,0.8673095703125,0.025483780136501294,-0.10411981076446258,1.9281370232139587
39,1.600053372000275,bno085,0.2421875,0.1953125,9.9140625,0.0,0.0,0.0,0.0147705078125,-0.0064697265625,0.49749755859375,0.8673095703125,0.025483780136501294,-0.10411981076446258,1.9281370232139587
40,1.640053398999953,bno085,0.2421875,0.1953125,9.953125,0.0,0.0,0.0,0.01470947265625,-0.00640869140625,0.49749755859375,0.8673095703125,0.022892820612117736,-0.09457450766786916,1.927955140927718
41,1.680053480999959,bno085,0.2421875,0.1953125,9.953125,0.015625,0.017578125,0.001953125,0.0147705078125,-0.00592041015625,0.49749755859375,0.8673095703125,0.05678888605222355,-0.04952563884824602,1.9269098954757151
42,1.720053433999965,bno085,0.2421875,0.234375,9.91796875,-0.013671875,-0.0078125,-0.001953125,0.01483154296875,-0.0052490234375,0.49749755859375,0.8673095703125,0.10112007570671791,0.01372184830123127,1.9255378109588175
43,1.7600546460002988,bno085,0.2421875,0.1953125,9.953125,0.0,-0.00390625,-0.001953125,0.01483154296875,-0.0052490234375,0.49749755859375,0.8673095703125,0.10112007570671791,0.01372184830123127,1.9255378109588175
44,1.8000532660003046,bno085,0.2421875,0.1953125,9.953125,-0.001953125,-0.0078125,-0.001953125,0.01470947265625,-0.00543212890625,0.49749755859375,0.8673095703125,0.07854633000829879,0.0024817900590759965,1.9258231871309823
45,1.8400597560003007,bno085,0.2421875,0.1953125,9.9140625,-0.001953125,-0.0078125,-0.001953125,0.01470947265625,-0.00531005859375,0.49749755859375,0.8673095703125,0.08550302946271576,0.014613883736607724,1.9255699564848208
46,1.8800570050002534,bno085,0.203125,0.234375,9.95703125,-0.001953125,-0.005859375,0.0,0.0147705078125,-0.00531005859375,0.49749755859375,0.8673095703125,0.09157236131327373,0.01113482707794916,1.9256164232423771
47,1.9200558460001957,bno085,0.2421875,0.234375,9.95703125,0.00390625,0.001953125,0.0,0.0147705078125,-0.00531005859375,0.49749755859375,0.8673095703125,0.09157236131327373,0.01113482707794916,1.9256164232423771
48,1.960054965999916,bno085,0.2421875,0.1953125,9.953125,0.0,0.0,-0.001953125,0.0147705078125,-0.00531005859375,0.49749755859375,0.8673095703125,0.09157236131327373,0.01113482707794916,1.9256164232423771
49,2.0000535670001227,bno085,0.203125,0.1953125,9.953125,-0.001953125,-0.00390625,0.0,0.0147705078125,-0.0052490234375,0.49749755859375,0.8673095703125,0.095050715001645,0.017200892079248218,1.9254911287413177
50,2.0400547230001393,bno085,0.2421875,0.1953125,9.953125,-0.001953125,-0.00390625,0.0,0.0147705078125,-0.0052490234375,0.49749755859375,0.8673095703125,0.095050715001645,0.017200892079248218,1.9254911287413177
51,2.0800554719999127,bno085,0.2421875,0.1953125,9.953125,-0.001953125,-0.00390625,0.0,0.0147705078125,-0.0052490234375,0.49749755859375,0.8673095703125,0.095050715001645,0.017200892079248218,1.9254911287413177
52,2.12005538800031,bno085,0.2421875,0.234375,9.91796875,0.00390625,0.001953125,-0.001953125,0.0147705078125,-0.0052490234375,0.49749755859375,0.8673095703125,0.095050715001645,0.017200892079248218,1.9254911287413177
53,2.160055026000009,bno085,0.2421875,0.1953125,9.953125,0.00390625,0.001953125,0.0,0.0147705078125,-0.0052490234375,0.49749755859375,0.8673095703125,0.095050715001645,0.017200892079248218,1.9254911287413177
54,2.200053478999962,bno085,0.2421875,0.1953125,9.9140625,-0.00390625,-0.005859375,-0.001953125,0.0147705078125,-0.0052490234375,0.49749755859375,0.8673095703125,0.095050715001645,0.017200892079248218,1.9254911287413177
55,2.2400557099999787,bno085,0.2421875,0.1953125,9.953125,-0.00390625,-0.005859375,-0.001953125,0.0147705078125,-0.0052490234375,0.4974365234375,0.86737060546875,0.09499041904563861,0.01716127139386067,1.9181782214147407
56,2.2800550330002807,bno085,0.2421875,0.234375,9.95703125,0.001953125,-0.00390625,0.0,0.01470947265625,-0.00531005859375,0.4974365234375,0.86737060546875,0.08544273377252043,0.014573409740269942,1.9182570593088868
57,2.3200550040000962,bno085,0.2421875,0.1953125,9.953125,-0.001953125,0.00390625,0.0,0.01470947265625,-0.00531005859375,0.4974365234375,0.86737060546875,0.08544273377252043,0.014573409740269942,1.9182570593088868
58,2.3600541979999434,bno085,0.2421875,0.1953125,9.9140625,0.001953125,0.00390625,0.0,0.01470947265625,-0.00531005859375,0.4974365234375,0.86737060546875,0.08544273377252043,0.014573409740269942,1.9182570593088868
59,2.4000542620001397,bno085,0.2421875,0.1953125,9.953125,0.001953125,0.0,0.0,0.0146484375,-0.00531005859375,0.4974365234375,0.86737060546875,0.0793730023070086,0.018052039691745788,1.9182105948929284
60,2.4400535290001244,bno085,0.2421875,0.1953125,9.953125,0.001953125,0.0,0.0,0.0146484375,-0.00531005859375,0.49737548828125,0.86737060546875,0.07922384908414558,0.017942951608339704,1.9091414383842957
61,2.48005481600012,bno085,0.2421875,0.1953125,9.953125,-0.005859375,-0.001953125,0.0,0.0146484375,-0.00531005859375,0.4974365234375,0.86737060546875,0.0793730023070086,0.018052039691745788,1.9182105948929284
62,2.5200559170002634,bno085,0.2421875,0.234375,9.91796875,0.001953125,0.0,0.0,0.0146484375,-0.00531005859375,0.4974365234375,0.86737060546875,0.0793730023070086,0.018052039691745788,1.9182105948929284
63,2.5600546470000154,bno085,0.2421875,0.1953125,9.953125,0.001953125,0.00390625,-0.001953125,0.0146484375,-0.00531005859375,0.4974365234375,0.86737060546875,0.0793730023070086,0.018052039691745788,1.9182105948929284
64,2.6000551740003175,bno085,0.2421875,0.1953125,9.953125,-0.005859375,0.0,0.0,0.01470947265625,-0.00531005859375,0.4974365234375,0.86737060546875,0.08544273377252043,0.014573409740269942,1.9182570593088868
65,2.6400534600002175,bno085,0.2421875,0.1953125,9.953125,-0.005859375,0.0,0.0,0.0146484375,-0.00537109375,0.49737548828125,0.86737060546875,0.07574635389321614,0.011876489104548795,1.9092679155411258
66,2.6800542280002446,bno085,0.2421875,0.1953125,9.953125,0.0,-0.001953125,0.001953125,0.0146484375,-0.00537109375,0.49737548828125,0.86737060546875,0.07574635389321614,0.011876489104548795,1.9092679155411258
67,2.7200533660002293,bno085,0.2421875,0.234375,9.91796875,0.001953125,0.001953125,0.0,0.0146484375,-0.00537109375,0.4974365234375,0.86737060546875,0.07589508051274547,0.01198557737458878,1.9183370650720204
68,2.760054541000045,bno085,0.2421875,0.1953125,9.953125,-0.001953125,0.001953125,-0.001953125,0.0146484375,-0.00537109375,0.4974365234375,0.86737060546875,0.07589508051274547,0.01198557737458878,1.9183370650720204
69,2.800053716000093,bno085,0.2421875,0.1953125,9.953125,-0.001953125,-0.001953125,0.001953125,0.0146484375,-0.00537109375,0.49737548828125,0.86737060546875,0.07574635389321614,0.011876489104548795,1.9092679155411258
70,2.84005970599992,bno085,0.2421875,0.1953125,9.9140625,-0.001953125,-0.001953125,0.001953125,0.0146484375,-0.00537109375,0.49737548828125,0.86737060546875,0.07574635389321614,0.011876489104548795,1.9092679155411258
71,2.880056047999915,bno085,0.2421875,0.1953125,9.9140625,-0.00390625,-0.001953125,0.0,0.01458740234375,-0.00543212890625,0.49737548828125,0.86737060546875,0.06619915873689698,0.009288259251786168,1.9093490946419438
72,2.9200555010002063,bno085,0.2421875,0.234375,9.95703125,-0.001953125,0.0,0.0,0.01458740234375,-0.0054931640625,0.49737548828125,0.867431640625,0.06280970220511095,0.003288702320024625,1.911234161636136
73,2.9600602310001705,bno085,0.2421875,0.234375,9.95703125,0.001953125,0.001953125,0.001953125,0.01458740234375,-0.0054931640625,0.49737548828125,0.867431640625,0.06280970220511095,0.003288702320024625,1.911234161636136
74,3.0000607770002716,bno085,0.2421875,0.1953125,9.9140625,-0.00390625,-0.001953125,0.001953125,0.01458740234375,-0.0054931640625,0.49737548828125,0.867431640625,0.06280970220511095,0.003288702320024625,1.911234161636136
75,3.040054118000171,bno085,0.2421875,0.234375,9.95703125,-0.00390625,-0.001953125,0.001953125,0.01458740234375,-0.00555419921875,0.497314453125,0.867431640625,0.05918479290219663,-0.002887688057051801,1.902294439405382
76,3.0800541270000394,bno085,0.2421875,0.234375,9.95703125,0.001953125,-0.00390625,0.001953125,0.0146484375,-0.0054931640625,0.497314453125,0.867431640625,0.06873198219198866,-0.0002986376116223551,1.902211345408552
77,3.1200536720002674,bno085,0.2421875,0.1953125,9.953125,-0.001953125,0.001953125,0.0,0.0146484375,-0.0054931640625,0.497314453125,0.867431640625,0.06873198219198866,-0.0002986376116223551,1.902211345408552
78,3.1600533099999666,bno085,0.2421875,0.1953125,9.9140625,0.00390625,0.00390625,-0.001953125,0.0146484375,-0.0054931640625,0.497314453125,0.867431640625,0.06873198219198866,-0.0002986376116223551,1.902211345408552
79,3.20005320700011,bno085,0.2421875,0.1953125,9.953125,0.00390625,0.0,0.0,0.01470947265625,-0.0054931640625,0.497314453125,0.867431640625,0.07480213509077235,-0.0037764528161430616,1.9022571619073505
80,3.240053696999894,bno085,0.2421875,0.1953125,9.953125,0.00390625,0.0,0.0,0.0147705078125,-0.0054931640625,0.497314453125,0.867431640625,0.0808723149816125,-0.007254268028071372,1.9023029783251135
81,3.2800534650000372,bno085,0.2421875,0.1953125,9.953125,0.001953125,-0.00390625,0.001953125,0.01483154296875,-0.00543212890625,0.497314453125,0.867431640625,0.09041959303948775,-0.004665162470434861,1.9022214835107234
82,3.3200533809999797,bno085,0.2421875,0.1953125,9.953125,0.00390625,0.001953125,0.0,0.01483154296875,-0.00543212890625,0.497314453125,0.867431640625,0.09041959303948775,-0.004665162470434861,1.9022214835107234
83,3.36005322300025,bno085,0.2421875,0.1953125,9.953125,0.00390625,0.00390625,0.0,0.01483154296875,-0.00543212890625,0.497314453125,0.867431640625,0.09041959303948775,-0.004665162470434861,1.9022214835107234
84,3.4000546199999917,bno085,0.2421875,0.1953125,9.953125,-0.00390625,0.001953125,0.0,0.01483154296875,-0.00543212890625,0.497314453125,0.867431640625,0.09041959303948775,-0.004665162470434861,1.9022214835107234
85,3.4400554990002092,bno085,0.2421875,0.1953125,9.953125,-0.00390625,0.001953125,0.0,0.01483154296875,-0.00543212890625,0.497314453125,0.867431640625,0.09041959303948775,-0.004665162470434861,1.9022214835107234
86,3.4800546000001304,bno085,0.2421875,0.1953125,9.953125,-0.005859375,-0.00390625,0.001953125,0.01483154296875,-0.0054931640625,0.497314453125,0.867431640625,0.08694252199946315,-0.010732083260062775,1.9023487946618423
87,3.5200545340003373,bno085,0.2421875,0.1953125,9.953125,-0.001953125,0.0,0.0,0.0147705078125,-0.0054931640625,0.497314453125,0.867431640625,0.0808723149816125,-0.007254268028071372,1.9023029783251135
88,3.560054505000153,bno085,0.2421875,0.1953125,9.9140625,0.001953125,0.00390625,0.001953125,0.0147705078125,-0.0054931640625,0.497314453125,0.867431640625,0.0808723149816125,-0.007254268028071372,1.9023029783251135
89,3.6000550880003175,bno085,0.2421875,0.1953125,9.953125,0.00390625,0.0,-0.001953125,0.0147705078125,-0.0054931640625,0.497314453125,0.867431640625,0.0808723149816125,-0.007254268028071372,1.9023029783251135
90,3.6400557259999005,bno085,0.2421875,0.1953125,9.953125,0.00390625,0.0,-0.001953125,0.0147705078125,-0.0054931640625,0.497314453125,0.867431640625,0.0808723149816125,-0.007254268028071372,1.9023029783251135
91,3.6800583640001605,bno085,0.2421875,0.1953125,9.9140625,0.001953125,-0.001953125,0.0,0.0147705078125,-0.00543212890625,0.49737548828125,0.867431640625,0.08449765644340017,-0.0010791153988136597,1.9112440868643668
92,3.7200570570003038,bno085,0.2421875,0.1953125,9.953125,0.005859375,0.0,-0.001953125,0.01483154296875,-0.00543212890625,0.49737548828125,0.867431640625,0.09056786493363987,-0.004557344257713234,1.9112901174307477
93,3.7600577880002675,bno085,0.2421875,0.1953125,9.953125,0.0,0.00390625,0.0,0.01483154296875,-0.00543212890625,0.49737548828125,0.867431640625,0.09056786493363987,-0.004557344257713234,1.9112901174307477
94,3.8000593700003265,bno085,0.2421875,0.1953125,9.953125,-0.005859375,0.0,0.0,0.01483154296875,-0.00543212890625,0.49737548828125,0.867431640625,0.09056786493363987,-0.004557344257713234,1.9112901174307477
95,3.8400641380003435,bno085,0.2421875,0.1953125,9.953125,-0.005859375,0.0,0.0,0.01483154296875,-0.0054931640625,0.49737548828125,0.867431640625,0.08709036729767762,-0.010624264857704714,1.9114174218922044
96,3.880059887000243,bno085,0.2421875,0.1953125,9.953125,-0.001953125,-0.00390625,0.0,0.01483154296875,-0.0054931640625,0.497314453125,0.867431640625,0.08694252199946315,-0.010732083260062775,1.9023487946618423
97,3.9200598960001116,bno085,0.2421875,0.1953125,9.953125,0.005859375,-0.001953125,0.0,0.01483154296875,-0.0054931640625,0.49737548828125,0.86737060546875,0.08700062744136994,-0.010691151244548131,1.9096605369927717
98,3.9600571999999374,bno085,0.2421875,0.1953125,9.953125,0.00390625,0.00390625,0.0,0.01483154296875,-0.0054931640625,0.49737548828125,0.86737060546875,0.08700062744136994,-0.010691151244548131,1.9096605369927717
99,4.00005880100025,bno085,0.2421875,0.1953125,9.953125,0.0,0.0,0.0,0.01483154296875,-0.0054931640625,0.49737548828125,0.86737060546875,0.08700062744136994,-0.010691151244548131,1.9096605369927717
100,4.040058199000214,bno085,0.2421875,0.1953125,9.953125,0.0,0.0,0.0,0.0147705078125,-0.00555419921875,0.49737548828125,0.867431640625,0.0775426656151362,-0.013212927354457499,1.9114998637507268
101,4.080059689000336,bno085,0.2421875,0.1953125,9.953125,-0.00390625,-0.001953125,-0.001953125,0.01470947265625,-0.00555419921875,0.497314453125,0.867431640625,0.07132506847379126,-0.009843344341494913,1.9023856411047875
102,4.120057049000025,bno085,0.2421875,0.1953125,9.953125,0.0,0.001953125,0.0,0.0147705078125,-0.005615234375,0.49737548828125,0.867431640625,0.07406517174546064,-0.01927982838496896,1.911628857269423
103,4.160057298000083,bno085,0.2421875,0.1953125,9.953125,-0.001953125,0.001953125,-0.001953125,0.0147705078125,-0.005615234375,0.49737548828125,0.867431640625,0.07406517174546064,-0.01927982838496896,1.911628857269423
104,4.200057732000005,bno085,0.2421875,0.1953125,9.953125,0.00390625,0.001953125,0.0,0.01470947265625,-0.005615234375,0.49737548828125,0.867431640625,0.06799499528750426,-0.015801560620707925,1.9115834734913422
105,4.240061426000011,bno085,0.2421875,0.1953125,9.953125,0.00390625,0.001953125,0.0,0.0147705078125,-0.005615234375,0.49737548828125,0.867431640625,0.07406517174546064,-0.01927982838496896,1.911628857269423
106,4.280058694000218,bno085,0.2421875,0.1953125,9.953125,0.0,0.0,0.0,0.0147705078125,-0.00555419921875,0.49737548828125,0.867431640625,0.0775426656151362,-0.013212927354457499,1.9114998637507268
107,4.320057869000266,bno085,0.2421875,0.1953125,9.953125,0.0,0.0,0.0,0.0147705078125,-0.005615234375,0.49737548828125,0.867431640625,0.07406517174546064,-0.01927982838496896,1.911628857269423
108,4.360057414000039,bno085,0.2421875,0.1953125,9.953125,0.0,0.0,0.0,0.0147705078125,-0.005615234375,0.49737548828125,0.867431640625,0.07406517174546064,-0.01927982838496896,1.911628857269423
109,4.4000571629999286,bno085,0.2421875,0.1953125,9.953125,0.0,0.0,0.0,0.0147705078125,-0.005615234375,0.49737548828125,0.867431640625,0.07406517174546064,-0.01927982838496896,1.911628857269423
110,4.440057930999956,bno085,0.2421875,0.1953125,9.953125,0.0,0.0,0.0,0.01470947265625,-0.005615234375,0.49737548828125,0.867431640625,0.06799499528750426,-0.015801560620707925,1.9115834734913422
111,4.4800576800003,bno085,0.2421875,0.1953125,9.953125,0.0,0.0,0.0,0.01470947265625,-0.0054931640625,0.49737548828125,0.867431640625,0.07494998077024255,-0.003667781257448773,1.9113257919262858
112,4.520056985000338,bno085,0.203125,0.234375,9.91796875,-0.005859375,-0.013671875,0.0,0.0147705078125,-0.00506591796875,0.4974365234375,0.86737060546875,0.10542421007028867,0.0353607680034841,1.9178067353997885
113,4.560056714999973,bno085,0.1640625,0.234375,9.95703125,0.02734375,0.0078125,0.185546875,0.0147705078125,-0.00506591796875,0.4974365234375,0.86737060546875,0.10542421007028867,0.0353607680034841,1.9178067353997885
114,4.600058687000001,bno085,0.27734375,0.1953125,9.953125,0.029296875,0.0234375,0.01953125,0.0152587890625,-0.0042724609375,0.5003662109375,0.86566162109375,0.2041408507438548,0.08930434815634203,2.3033879290729895
115,4.640056936000292,bno085,0.203125,0.234375,9.91796875,0.029296875,0.0234375,0.01953125,0.01531982421875,-0.00421142578125,0.5006103515625,0.86553955078125,0.2141440450419268,0.09212393951776107,2.3361871284554767
116,4.680057259000023,bno085,0.203125,0.234375,9.95703125,-0.025390625,-0.0078125,-0.001953125,0.01513671875,-0.00439453125,0.5006103515625,0.86553955078125,0.18547187497877984,0.08446421668001072,2.3363715486784895
117,4.7200578420001875,bno085,0.2421875,0.1953125,9.953125,-0.00390625,-0.009765625,-0.029296875,0.01483154296875,-0.00531005859375,0.500244140625,0.86572265625,0.10205044357248487,0.010722168763008529,2.2886302280270976
118,4.76005692400031,bno085,0.2421875,0.234375,9.95703125,-0.001953125,0.01171875,-0.001953125,0.01483154296875,-0.00531005859375,0.500244140625,0.86572265625,0.10205044357248487,0.010722168763008529,2.2886302280270976
119,4.800057784000273,bno085,0.2421875,0.234375,9.91796875,-0.021484375,-0.0078125,-0.033203125,0.01483154296875,-0.00555419921875,0.50018310546875,0.86578369140625,0.08800120828886084,-0.0135382960101441,2.281797587882206
120,4.8400573480003,bno085,0.2421875,0.1953125,9.953125,-0.021484375,-0.0078125,-0.033203125,0.0147705078125,-0.00604248046875,0.49981689453125,0.865966796875,0.05336224610103488,-0.05894095358085012,2.2335367123485392
121,4.880058800999905,bno085,0.2421875,0.234375,9.95703125,-0.013671875,-0.017578125,0.0,0.0147705078125,-0.006103515625,0.49981689453125,0.865966796875,0.0498676878841971,-0.06499759030776273,2.2336713345110857
122,4.920057513000302,bno085,0.2421875,0.1953125,9.953125,0.00390625,-0.009765625,-0.009765625,0.0147705078125,-0.0062255859375,0.499755859375,0.86602783203125,0.04282401888966345,-0.07715665618030808,2.226607926964579
123,4.96005607699999,bno085,0.203125,0.1953125,9.9140625,0.064453125,0.03515625,0.0234375,0.0147705078125,-0.0062255859375,0.499755859375,0.86602783203125,0.04282401888966345,-0.07715665618030808,2.226607926964579
124,5.000056937999943,bno085,0.2421875,0.234375,9.95703125,-0.009765625,-0.005859375,-0.005859375,0.0150146484375,-0.005126953125,0.49969482421875,0.86602783203125,0.12980879182584998,0.017785249027461914,2.215376307424108
125,5.040058631000193,bno085,0.203125,0.1953125,9.9140625,-0.009765625,-0.009765625,0.001953125,0.01495361328125,-0.00506591796875,0.49957275390625,0.86614990234375,0.12711941227715393,0.027263864418634126,2.2005399061118496
126,5.080058547000135,bno085,0.2421875,0.1953125,9.953125,-0.009765625,-0.009765625,0.001953125,0.01495361328125,-0.00537109375,0.49957275390625,0.86614990234375,0.10965506611793452,-0.0030261352165281276,2.2011582215466556
127,5.120058258999961,bno085,0.2421875,0.1953125,9.953125,-0.009765625,-0.0078125,0.001953125,0.01495361328125,-0.00537109375,0.49957275390625,0.86614990234375,0.10965506611793452,-0.0030261352165281276,2.2011582215466556
128,5.160056249000263,bno085,0.2421875,0.1953125,9.9140625,-0.0078125,-0.005859375,0.001953125,0.01495361328125,-0.00537109375,0.49957275390625,0.86614990234375,0.10965506611793452,-0.0030261352165281276,2.2011582215466556
129,5.2000587200000155,bno085,0.2421875,0.1953125,9.953125,-0.005859375,-0.009765625,0.0,0.01495361328125,-0.00555419921875,0.49957275390625,0.86614990234375,0.09917647861454904,-0.021200093768801415,2.201538077567134
130,5.240059413999916,bno085,0.2421875,0.1953125,9.953125,-0.005859375,-0.009765625,0.0,0.014892578125,-0.005615234375,0.49951171875,0.86614990234375,0.0894743623330702,-0.02387168872406734,2.192538712918257
131,5.280058404000101,bno085,0.2421875,0.1953125,9.9140625,0.001953125,0.00390625,-0.00390625,0.014892578125,-0.00555419921875,0.4993896484375,0.8662109375,0.09276021220088165,-0.017961312730725463,2.1759970134262394
132,5.320058005000192,bno085,0.0859375,0.2734375,9.91796875,0.0078125,0.005859375,-0.001953125,0.014892578125,-0.0052490234375,0.49920654296875,0.8663330078125,0.10994711441215224,0.012146937747735042,2.151625048221746
133,5.360057236000102,bno085,-0.02734375,0.3125,9.953125,0.060546875,-0.013671875,1.1484375,0.014892578125,-0.0052490234375,0.49920654296875,0.8663330078125,0.10994711441215224,0.012146937747735042,2.151625048221746
134,5.400058150999939,bno085,0.69921875,0.00390625,9.95703125,-0.005859375,0.00390625,-0.001953125,0.01580810546875,-0.00457763671875,0.5137939453125,0.85772705078125,0.2635303436622258,0.039816877404908156,4.088677317326719
135,5.440058475000114,bno085,0.203125,0.234375,9.95703125,-0.005859375,0.00390625,-0.001953125,0.015869140625,-0.00445556640625,0.51470947265625,0.857177734375,0.27828733469380795,0.049014340412087784,4.210821332439891
136,5.480060502000015,bno085,0.203125,0.234375,9.95703125,-0.0078125,0.00390625,-0.044921875,0.01580810546875,-0.00445556640625,0.51416015625,0.8575439453125,0.27140125830359363,0.052181690805034514,4.138385291646847
137,5.520056935999946,bno085,0.2421875,0.234375,9.91796875,-0.005859375,0.001953125,-0.001953125,0.01580810546875,-0.00445556640625,0.5140380859375,0.85760498046875,0.27117241921605734,0.05205968386706966,4.121740502837387
138,5.560057017999952,bno085,0.2421875,0.234375,9.95703125,-0.001953125,0.00390625,0.0078125,0.01580810546875,-0.00445556640625,0.5140380859375,0.85760498046875,0.27117241921605734,0.05205968386706966,4.121740502837387
139,5.600058249000085,bno085,0.2421875,0.234375,9.95703125,0.001953125,0.00390625,-0.00390625,0.015869140625,-0.00439453125,0.51409912109375,0.8575439453125,0.280834889189378,0.05448499545009527,4.129155756061311
140,5.640058127999964,bno085,0.2421875,0.1953125,9.9921875,0.001953125,0.00390625,-0.00390625,0.01593017578125,-0.00433349609375,0.5142822265625,0.85748291015625,0.29082416714977954,0.05710655832401631,4.154913620124846
141,5.680061062000277,bno085,0.31640625,0.1953125,9.99609375,0.083984375,-0.02734375,-0.03515625,0.017578125,-0.0037841796875,0.51336669921875,0.85797119140625,0.48359337741114,0.013337947972643706,4.031409359757484
142,5.720059034000315,bno085,0.27734375,0.2734375,9.95703125,0.119140625,-0.013671875,-0.2109375,0.0201416015625,-0.0028076171875,0.5098876953125,0.8599853515625,0.787606243720544,-0.042442801533846906,3.566672094850526
143,5.760056764000183,bno085,0.2421875,0.3515625,9.953125,0.076171875,-0.017578125,-0.361328125,0.0201416015625,-0.0028076171875,0.5098876953125,0.8599853515625,0.787606243720544,-0.042442801533846906,3.566672094850526
144,5.800057791000199,bno085,0.0859375,0.46484375,9.875,0.001953125,-0.03515625,-0.01953125,0.02191162109375,-0.00213623046875,0.50274658203125,0.8641357421875,0.9903984369476941,-0.08012693463471744,2.617368305611981
145,5.840059058999941,bno085,0.27734375,0.3515625,9.953125,0.001953125,-0.03515625,-0.01953125,0.02252197265625,-0.00250244140625,0.5009765625,0.86517333984375,1.0273049640599454,-0.15160124778222028,2.3841080619234907
146,5.880057956000201,bno085,0.31640625,0.3125,9.95703125,-0.037109375,-0.03515625,-0.1171875,0.02215576171875,-0.0029296875,0.4981689453125,0.8668212890625,0.9625630303166033,-0.17324824444965853,2.013665951946416
147,5.92005757600009,bno085,0.0859375,0.42578125,9.91796875,0.025390625,0.068359375,-0.263671875,0.02178955078125,-0.001953125,0.49383544921875,0.8692626953125,0.9752028250125929,-0.055871366369630276,1.4393858583188772
148,5.960058140000001,bno085,0.39453125,0.234375,9.99609375,0.111328125,0.05859375,-0.25390625,0.02178955078125,-0.001953125,0.49383544921875,0.8692626953125,0.9752028250125929,-0.055871366369630276,1.4393858583188772
149,6.000058463000187,bno085,0.5078125,3.33984375,11.484375,-0.03125,-0.427734375,1.302734375,0.02410888671875,0.0,0.49017333984375,0.87127685546875,1.311127078935965,0.008387522707607377,0.9566410103828678
150,6.040057342000182,bno085,-0.2578125,-0.53125,9.375,-0.03125,-0.427734375,1.302734375,0.0306396484375,0.007080078125,0.49835205078125,0.86639404296875,2.3776923312305156,0.3363828287135282,2.039452634086116
151,6.080057628000304,bno085,0.43359375,0.6171875,8.95703125,1.85546875,-0.74609375,0.26953125,0.0634765625,0.02093505859375,0.50115966796875,0.86273193359375,6.44078097810869,-0.18485903284675878,2.464173995520743
152,6.120057433000056,bno085,0.05078125,1.84375,10.0703125,0.255859375,0.033203125,-0.17578125,0.06597900390625,0.02581787109375,0.49749755859375,0.86456298828125,6.964574943098349,0.1790111798619326,2.0096654423046263
153,6.160056792999967,bno085,0.5078125,0.88671875,10.375,1.306640625,0.095703125,0.080078125,0.0908203125,0.04248046875,0.4959716796875,0.862548828125,10.39594571334968,0.4188487309205997,1.9583221246475977
154,6.200057652999931,bno085,0.27734375,2.609375,9.3046875,1.330078125,-0.224609375,-0.3203125,0.0908203125,0.04248046875,0.4959716796875,0.862548828125,10.39594571334968,0.4188487309205997,1.9583221246475977
155,6.240056606000053,bno085,0.31640625,2.80078125,9.30859375,1.330078125,-0.224609375,-0.3203125,0.12396240234375,0.057861328125,0.4886474609375,0.8616943359375,14.587486560533996,0.13953151328333224,1.2048433815512192
156,6.2800577259999955,bno085,-0.06640625,2.6484375,9.91796875,-0.068359375,0.072265625,0.013671875,0.12396240234375,0.06109619140625,0.488525390625,0.86151123046875,14.771405276618152,0.4600975509128185,1.2370103038591913
157,6.320057660000202,bno085,0.01171875,2.765625,9.61328125,0.724609375,-0.0078125,0.23828125,0.1365966796875,0.06640625,0.49237060546875,0.8570556640625,16.357200090891705,0.19418503638045823,1.8335610958720059
158,6.360056928000176,bno085,0.1640625,2.83984375,9.53515625,0.791015625,-0.099609375,0.068359375,0.1365966796875,0.06640625,0.49237060546875,0.8570556640625,16.357200090891705,0.19418503638045823,1.8335610958720059
159,6.400057455000024,bno085,0.1640625,2.9921875,9.69140625,1.44921875,-0.20703125,0.310546875,0.15362548828125,0.0740966796875,0.49169921875,0.8538818359375,18.517251088378966,-0.02554097992043233,1.8894128335728742
160,6.440059556000051,bno085,0.2421875,4.10546875,9.1875,1.44921875,-0.20703125,0.310546875,0.183837890625,0.08563232421875,0.49444580078125,0.84521484375,22.249943938862575,-0.7312232819641373,2.4929320160911215
161,6.4800577860000885,bno085,0.31640625,4.02734375,8.61328125,-0.642578125,0.486328125,0.015625,0.18609619140625,0.094482421875,0.49859619140625,0.84130859375,23.005251839009524,-0.11864533526280223,3.243768975944948
162,6.520056647000274,bno085,0.1640625,4.2578125,9.265625,1.21875,-0.24609375,0.3046875,0.2088623046875,0.10577392578125,0.502197265625,0.83245849609375,25.992279324624047,-0.5106558367564789,4.010813819220418
163,6.560055914000259,bno085,0.1640625,4.75390625,8.38671875,0.998046875,0.044921875,-0.01953125,0.23101806640625,0.12103271484375,0.49993896484375,0.82586669921875,29.168598176072845,-0.35883958514647807,4.166619923203965
164,6.600059108000096,bno085,0.203125,4.87109375,8.3046875,0.67578125,0.376953125,-0.501953125,0.23101806640625,0.12103271484375,0.49993896484375,0.82586669921875,29.168598176072845,-0.35883958514647807,4.166619923203965
165,6.640058264000345,bno085,-0.1796875,5.25390625,8.5390625,0.67578125,0.376953125,-0.501953125,0.24200439453125,0.1375732421875,0.49029541015625,0.825927734375,31.286198209284922,0.8335325338577526,3.4718868765234485
166,6.680058403000203,bno085,0.05078125,5.71484375,7.92578125,0.916015625,0.30078125,-0.486328125,0.25384521484375,0.1578369140625,0.478271484375,0.82574462890625,33.715606397031294,2.4186759803340157,2.6948395481696608
167,6.720056689000103,bno085,-0.41015625,5.94140625,7.80859375,1.224609375,0.240234375,-0.197265625,0.27349853515625,0.17864990234375,0.4713134765625,0.8192138671875,37.033936827497406,3.396223783047959,2.714718331458002
168,6.760058049000236,bno085,-0.44921875,6.171875,7.38671875,1.146484375,0.140625,-0.203125,0.29400634765625,0.19549560546875,0.46368408203125,0.8126220703125,40.225347601310546,3.977501666905736,2.5818814347759047
169,6.800057743000252,bno085,-0.71875,6.44140625,7.5390625,0.529296875,0.12890625,-0.05078125,0.29400634765625,0.19549560546875,0.46368408203125,0.8126220703125,40.225347601310546,3.977501666905736,2.5818814347759047
170,6.840058843999941,bno085,-0.37109375,7.05859375,7.00390625,0.728515625,0.021484375,0.140625,0.30572509765625,0.205810546875,0.45965576171875,0.80804443359375,42.11307524904508,4.349720382050773,2.6207441279141532
171,6.8800602599999365,bno085,-0.33203125,7.05859375,6.62109375,0.728515625,0.021484375,0.140625,0.3233642578125,0.21429443359375,0.45770263671875,0.79998779296875,44.5365616353477,4.0848880346527405,2.8656052332605717
172,6.920058878999953,bno085,-0.21875,7.48046875,6.546875,1.837890625,-0.515625,0.197265625,0.36151123046875,0.22308349609375,0.45013427734375,0.78546142578125,49.20196698812851,2.8245078894370144,2.5162050710794466
173,6.960056628000075,bno085,-0.2578125,7.703125,6.35546875,0.9140625,-0.16015625,0.197265625,0.38153076171875,0.2293701171875,0.446533203125,0.77618408203125,51.80335671077025,2.270467924998028,2.482089927573691
174,7.000058563000039,bno085,-0.21875,8.1640625,5.93359375,0.333984375,0.08203125,0.04296875,0.38153076171875,0.2293701171875,0.446533203125,0.77618408203125,51.80335671077025,2.270467924998028,2.482089927573691
175,7.040058201000193,bno085,-0.1796875,7.93359375,5.703125,0.341796875,0.16796875,0.234375,0.388671875,0.233642578125,0.44573974609375,0.77178955078125,52.87528874041229,2.2058636164883554,2.6509722462881515
176,7.0800588940001035,bno085,-0.140625,8.12890625,5.5859375,0.341796875,0.16796875,0.234375,0.39459228515625,0.23883056640625,0.4486083984375,0.7655029296875,53.89138140262934,2.072608647025706,3.3136983810159704
177,7.120058273000268,bno085,-0.10546875,8.16796875,5.55078125,0.751953125,0.07421875,0.09765625,0.40765380859375,0.24810791015625,0.447265625,0.7564697265625,55.977016885815125,2.028705448633133,3.748881292567873
178,7.160057355999925,bno085,-0.10546875,8.46875,5.16796875,0.623046875,-0.017578125,-0.0546875,0.4197998046875,0.25604248046875,0.443115234375,0.74957275390625,57.87666107400262,2.091991929560527,3.786597857415186
179,7.200056049000068,bno085,-0.02734375,8.58984375,4.8203125,0.52734375,0.251953125,0.1640625,0.4197998046875,0.25604248046875,0.443115234375,0.74957275390625,57.87666107400262,2.091991929560527,3.786597857415186
180,7.240058297999894,bno085,-0.140625,8.5078125,4.9375,0.46484375,0.046875,-0.029296875,0.42669677734375,0.26470947265625,0.4451904296875,0.74139404296875,59.2723498993346,2.1513298616255923,4.611168130214382
181,7.280059566000091,bno085,-0.1796875,8.93359375,4.70703125,0.46484375,0.046875,-0.029296875,0.43267822265625,0.271240234375,0.4434814453125,0.736572265625,60.41093918852115,2.340342971483384,4.862593671136494
182,7.32005798199998,bno085,-0.1796875,8.8515625,4.59375,0.427734375,-0.060546875,-0.05859375,0.441650390625,0.27630615234375,0.43896484375,0.7320556640625,61.783491311138256,2.394799066842,4.704523337183015
183,7.3600569899999755,bno085,-0.140625,8.734375,4.3984375,0.48828125,-0.14453125,0.037109375,0.452392578125,0.279052734375,0.43450927734375,0.72705078125,63.20204186451361,2.1504510135815114,4.403145609784249
184,7.400058480000098,bno085,-0.140625,9.0859375,4.20703125,0.513671875,-0.12109375,0.009765625,0.452392578125,0.279052734375,0.43450927734375,0.72705078125,63.20204186451361,2.1504510135815114,4.403145609784249
185,7.440058433000104,bno085,-0.10546875,9.15625,3.98046875,0.259765625,0.09375,0.015625,0.46331787109375,0.2825927734375,0.42938232421875,0.72186279296875,64.71254312985961,2.0000010432896613,4.090464285987304
186,7.48005983100029,bno085,-0.06640625,8.93359375,3.86328125,0.259765625,0.09375,0.015625,0.46661376953125,0.28607177734375,0.42840576171875,0.718994140625,65.3492189837758,2.0863928581777076,4.237860018190228
187,7.520056728000327,bno085,-0.140625,9.23828125,3.86328125,0.294921875,-0.078125,-0.046875,0.47161865234375,0.288330078125,0.42547607421875,0.716552734375,66.09257719964651,2.101639529037795,4.080718041907693
188,7.560057624999899,bno085,-0.10546875,9.0859375,3.7109375,0.181640625,0.05078125,-0.05078125,0.47430419921875,0.2916259765625,0.42333984375,0.71466064453125,66.64332462389577,2.2944226636871683,4.08752962394404
189,7.600059985999906,bno085,-0.10546875,9.1171875,3.48046875,0.453125,0.08984375,0.0625,0.47430419921875,0.2916259765625,0.42333984375,0.71466064453125,66.64332462389577,2.2944226636871683,4.08752962394404
190,7.640058068000144,bno085,-0.1796875,9.3125,3.6328125,0.419921875,-0.005859375,-0.044921875,0.48028564453125,0.2967529296875,0.422119140625,0.70928955078125,67.72738187358321,2.3132134901589825,4.345647005956502
191,7.680059280000023,bno085,-0.21875,9.2734375,3.2890625,0.419921875,-0.005859375,-0.044921875,0.48626708984375,0.30133056640625,0.41912841796875,0.70501708984375,68.77084788160657,2.41558073872564,4.371102554036641
192,7.7200576959999125,bno085,-0.1796875,9.390625,3.13671875,0.498046875,-0.07421875,-0.083984375,0.4937744140625,0.30633544921875,0.4140625,0.70062255859375,70.03072690214435,2.5889962319364863,4.213123357622994
193,7.7600570190002145,bno085,-0.1796875,9.5390625,3.13671875,0.287109375,0.0234375,-0.07421875,0.49871826171875,0.310546875,0.40997314453125,0.6976318359375,70.93274458801795,2.818049154330842,4.105180490465448
194,7.8000583430002735,bno085,-0.21875,9.578125,3.05859375,0.158203125,0.0,-0.02734375,0.49871826171875,0.310546875,0.40997314453125,0.6976318359375,70.93274458801795,2.818049154330842,4.105180490465448
195,7.840058907000184,bno085,-0.2578125,9.47265625,2.984375,0.46875,-0.310546875,-0.1015625,0.5018310546875,0.31256103515625,0.407470703125,0.696044921875,71.45662282395098,2.9179447230765483,4.000938964015848
196,7.880059896000148,bno085,-0.2578125,9.43359375,2.9453125,0.46875,-0.310546875,-0.1015625,0.509765625,0.313232421875,0.40008544921875,0.6942138671875,72.45015274049157,2.9537232890144263,3.274112021659863
197,7.92005740500008,bno085,-0.33203125,9.54296875,2.9453125,0.048828125,-0.162109375,0.0078125,0.51336669921875,0.31134033203125,0.39697265625,0.6942138671875,72.7387790140346,2.81242991303853,2.7975641394346527
198,7.960057116999906,bno085,-0.21875,9.6171875,2.67578125,0.103515625,-0.166015625,-0.0078125,0.51666259765625,0.30926513671875,0.39471435546875,0.6939697265625,72.98151513383634,2.6150287188177868,2.3974351020001166
199,8.000057514000218,bno085,-0.2578125,9.66015625,2.75390625,0.150390625,-0.046875,-0.037109375,0.51666259765625,0.30926513671875,0.39471435546875,0.6939697265625,72.98151513383634,2.6150287188177868,2.3974351020001166
200,8.040061652000077,bno085,-0.10546875,9.62109375,2.67578125,-0.0234375,0.05078125,0.03515625,0.52020263671875,0.3096923828125,0.3919677734375,0.6927490234375,73.44493181206728,2.604551924881765,2.147984670956518
201,8.08005730900004,bno085,-0.1796875,9.62109375,2.67578125,-0.0234375,0.05078125,0.03515625,0.5186767578125,0.31011962890625,0.393798828125,0.692626953125,73.29280727531008,2.5980775844833666,2.37298188482538
202,8.1200574100003,bno085,-0.1796875,9.6171875,2.75390625,-0.232421875,0.2421875,-0.01953125,0.51373291015625,0.3118896484375,0.39715576171875,0.693603515625,72.82633221675593,2.8080374670568355,2.862230878876476
203,8.160056937000263,bno085,-0.21875,9.578125,2.828125,-0.15234375,0.189453125,-0.02734375,0.50946044921875,0.31402587890625,0.40008544921875,0.69415283203125,72.47453757220413,3.029697946710318,3.3384988806329017
204,8.20005748299991,bno085,-0.2578125,9.578125,2.828125,-0.099609375,0.15625,0.01171875,0.50946044921875,0.31402587890625,0.40008544921875,0.69415283203125,72.47453757220413,3.029697946710318,3.3384988806329017
205,8.240058454000064,bno085,-0.296875,9.578125,2.9453125,0.021484375,0.048828125,-0.033203125,0.50567626953125,0.31561279296875,0.4029541015625,0.6944580078125,72.1422470623788,3.1821527806077126,3.7635347602926656
206,8.280059444000017,bno085,-0.296875,9.54296875,2.8671875,0.021484375,0.048828125,-0.033203125,0.50567626953125,0.31719970703125,0.40252685546875,0.6939697265625,72.26293680931734,3.3170239283940197,3.8446489200796434
207,8.320060044999991,bno085,-0.33203125,9.5,2.90625,0.01171875,0.03125,0.001953125,0.50567626953125,0.318359375,0.402587890625,0.69342041015625,72.35316999800128,3.387474937215285,3.9450431845784286
208,8.360056887000155,bno085,-0.33203125,9.578125,2.8671875,0.03125,-0.001953125,-0.021484375,0.50592041015625,0.31884765625,0.40240478515625,0.693115234375,72.42000707051562,3.4148784642499344,3.965187441889718
209,8.400057840000045,bno085,-0.296875,9.54296875,2.828125,0.01953125,0.0,-0.00390625,0.50592041015625,0.31884765625,0.40240478515625,0.693115234375,72.42000707051562,3.4148784642499344,3.965187441889718
210,8.440057959000114,bno085,-0.37109375,9.6171875,2.828125,-0.07421875,0.064453125,0.0234375,0.50634765625,0.319091796875,0.40179443359375,0.693115234375,72.48998664926164,3.4490642433261676,3.921813086529155
211,8.48005778200013,bno085,-0.33203125,9.578125,2.828125,-0.07421875,0.064453125,0.0234375,0.50494384765625,0.3192138671875,0.40313720703125,0.6932373046875,72.33213865971811,3.4529910571971847,4.071204661209238
212,8.520059402000243,bno085,-0.33203125,9.578125,2.90625,0.005859375,-0.00390625,-0.009765625,0.5048828125,0.3194580078125,0.40289306640625,0.693359375,72.34356832373993,3.493610550079786,4.065458872116318
213,8.560056448000068,bno085,-0.33203125,9.5390625,2.828125,0.017578125,-0.001953125,-0.0234375,0.50469970703125,0.3197021484375,0.40234375,0.69366455078125,72.33774563739827,3.563831742962352,4.024743162185644
214,8.600058012000318,bno085,-0.33203125,9.5390625,2.8671875,-0.015625,0.0078125,-0.017578125,0.50469970703125,0.3197021484375,0.40234375,0.69366455078125,72.33774563739827,3.563831742962352,4.024743162185644
215,8.640060316000017,bno085,-0.37109375,9.5390625,2.8671875,-0.025390625,0.015625,-0.01171875,0.5040283203125,0.3197021484375,0.40264892578125,0.6939697265625,72.25705412031688,3.588927688889046,4.055665212575792
216,8.680059603000245,bno085,-0.37109375,9.578125,2.90625,-0.025390625,0.015625,-0.01171875,0.50335693359375,0.31982421875,0.40283203125,0.6943359375,72.18623499030905,3.632913618514302,4.084293353949156
217,8.720059037000283,bno085,-0.37109375,9.5,2.8671875,-0.064453125,0.0625,0.02734375,0.501708984375,0.320068359375,0.40460205078125,0.69439697265625,72.01180619455158,3.632525399943155,4.2908319723067505
218,8.760056749000341,bno085,-0.33203125,9.5390625,2.984375,-0.08984375,0.10546875,-0.013671875,0.49908447265625,0.32073974609375,0.40679931640625,0.69464111328125,71.75374768363447,3.69614104987514,4.574530752893461
219,8.800058572000125,bno085,-0.37109375,9.5,2.984375,-0.001953125,0.013671875,-0.044921875,0.49908447265625,0.32073974609375,0.40679931640625,0.69464111328125,71.75374768363447,3.69614104987514,4.574530752893461
220,8.840058709999994,bno085,-0.41015625,9.46875,2.9453125,-0.029296875,0.068359375,0.013671875,0.49853515625,0.3214111328125,0.4068603515625,0.6947021484375,71.7403750436257,3.775040625483506,4.634088532467316
221,8.880059071000233,bno085,-0.37109375,9.54296875,2.9453125,-0.029296875,0.068359375,0.013671875,0.49749755859375,0.32220458984375,0.4080810546875,0.69439697265625,71.68258439619915,3.809064761494183,4.828490492631764
222,8.920058487000006,bno085,-0.41015625,9.5,2.984375,0.025390625,-0.01953125,-0.013671875,0.49774169921875,0.32244873046875,0.407958984375,0.69415283203125,71.730316986147,3.8152128152943217,4.835111414389891
223,8.960060032000001,bno085,-0.41015625,9.50390625,2.9453125,0.015625,0.021484375,0.001953125,0.49798583984375,0.32275390625,0.4080810546875,0.6937255859375,71.78362222962475,3.806062293828568,4.872969628654265
224,9.00005774400006,bno085,-0.41015625,9.50390625,2.9453125,-0.03125,0.05859375,0.013671875,0.49798583984375,0.32275390625,0.4080810546875,0.6937255859375,71.78362222962475,3.806062293828568,4.872969628654265
225,9.040057642000193,bno085,-0.37109375,9.5390625,2.984375,-0.04296875,0.02734375,-0.05859375,0.49725341796875,0.3233642578125,0.4091796875,0.693359375,71.74819678563868,3.8154777262400774,5.0404947439080505
226,9.08005707600023,bno085,-0.44921875,9.4296875,2.9453125,-0.04296875,0.02734375,-0.05859375,0.49591064453125,0.32421875,0.408935546875,0.694091796875,71.65343877115353,3.988210608177799,5.079906089013331
227,9.12005778799994,bno085,-0.44921875,9.54296875,2.984375,-0.025390625,0.017578125,-0.01171875,0.49505615234375,0.32440185546875,0.40936279296875,0.6943359375,71.56634898957951,4.02879155748316,5.1380995343725715
228,9.16005618500003,bno085,-0.44921875,9.54296875,2.984375,0.025390625,-0.013671875,0.0,0.4957275390625,0.324462890625,0.40911865234375,0.6939697265625,71.65092893865176,4.002041725293042,5.1184472134839485
229,9.200057805000142,bno085,-0.44921875,9.46875,2.984375,0.02734375,-0.04296875,0.0,0.4957275390625,0.324462890625,0.40911865234375,0.6939697265625,71.65092893865176,4.002041725293042,5.1184472134839485
230,9.240056221000032,bno085,-0.41015625,9.54296875,2.9453125,0.00390625,-0.005859375,-0.001953125,0.49627685546875,0.3240966796875,0.4088134765625,0.6939697265625,71.68757014193883,3.963311402888215,5.0580360365655554
231,9.280056933000196,bno085,-0.41015625,9.50390625,2.9453125,0.00390625,-0.005859375,-0.001953125,0.49664306640625,0.3238525390625,0.40850830078125,0.6939697265625,71.71069820974951,3.9432642010784993,5.005482472973941
232,9.32005755299997,bno085,-0.41015625,9.5390625,2.984375,-0.005859375,0.009765625,0.0078125,0.49664306640625,0.32391357421875,0.40863037109375,0.69384765625,71.7156401627945,3.93700286118361,5.023245032742058
233,9.360056376000102,bno085,-0.44921875,9.50390625,2.984375,0.00390625,-0.013671875,0.0078125,0.49664306640625,0.32366943359375,0.4088134765625,0.69384765625,71.69697470297447,3.907153999983826,5.023209837347798
234,9.400058681000246,bno085,-0.44921875,9.5,2.9453125,-0.01953125,-0.005859375,-0.001953125,0.49664306640625,0.32366943359375,0.4088134765625,0.69384765625,71.69697470297447,3.907153999983826,5.023209837347798
235,9.440058041000157,bno085,-0.41015625,9.5390625,3.01953125,-0.03125,0.013671875,-0.00390625,0.4964599609375,0.32330322265625,0.4088134765625,0.69415283203125,71.64608821312116,3.897376570376766,4.993064999739597
236,9.480060289999983,bno085,-0.41015625,9.5,2.984375,-0.03125,0.013671875,-0.00390625,0.495849609375,0.32318115234375,0.4090576171875,0.69451904296875,71.56419707033626,3.916187251986724,5.00829918320992
237,9.520056890999967,bno085,-0.41015625,9.5,3.01953125,-0.06640625,0.021484375,0.0234375,0.49493408203125,0.32269287109375,0.40985107421875,0.69488525390625,71.41790130535053,3.889631088906745,5.051522758985214
238,9.560058159000164,bno085,-0.37109375,9.47265625,3.01953125,-0.013671875,0.001953125,0.013671875,0.4947509765625,0.3223876953125,0.41015625,0.69500732421875,71.37352018334512,3.8611751954089986,5.060203992167284
239,9.60005837100016,bno085,-0.44921875,9.50390625,3.01953125,0.009765625,-0.009765625,0.001953125,0.4947509765625,0.3223876953125,0.41015625,0.69500732421875,71.37352018334512,3.8611751954089986,5.060203992167284
240,9.640056619999996,bno085,-0.44921875,9.50390625,3.01953125,-0.015625,0.015625,0.02734375,0.49493408203125,0.32232666015625,0.41021728515625,0.69488525390625,71.39122117892084,3.839716608978102,5.06278314303938
241,9.68005877700034,bno085,-0.41015625,9.5,3.01953125,-0.015625,0.015625,0.02734375,0.4947509765625,0.32220458984375,0.41082763671875,0.6947021484375,71.36178768653895,3.7981927125044543,5.118712434374792
242,9.720058377999976,bno085,-0.37109375,9.47265625,3.01953125,0.0546875,-0.064453125,0.005859375,0.4957275390625,0.32177734375,0.41009521484375,0.69464111328125,71.44289249631586,3.75557503026128,5.007294930066492
243,9.760058535000098,bno085,-0.41015625,9.5390625,2.984375,0.0,0.00390625,0.01171875,0.49615478515625,0.32159423828125,0.41009521484375,0.69439697265625,71.47953757420487,3.711699887008988,4.993219485503529
244,9.800058173000252,bno085,-0.41015625,9.5,3.01953125,0.037109375,-0.021484375,-0.0078125,0.49615478515625,0.32159423828125,0.41009521484375,0.69439697265625,71.47953757420487,3.711699887008988,4.993219485503529
245,9.840064107000217,bno085,-0.37109375,9.5,2.984375,0.037109375,-0.01171875,-0.009765625,0.4967041015625,0.32159423828125,0.4097900390625,0.6942138671875,71.54501345760137,3.695876356661483,4.9621475221169575
246,9.880057393000243,bno085,-0.41015625,9.5,2.984375,0.037109375,-0.01171875,-0.009765625,0.49713134765625,0.32177734375,0.40948486328125,0.6939697265625,71.60918154727072,3.698539566497801,4.944215885502644
247,9.920059661000323,bno085,-0.37109375,9.5390625,2.984375,0.00390625,-0.017578125,0.02734375,0.49755859375,0.3212890625,0.40972900390625,0.69378662109375,71.62392762221941,3.6186345795790205,4.933393706829782
248,9.960059077000096,bno085,-0.37109375,9.5390625,2.984375,0.0,-0.017578125,-0.021484375,0.4974365234375,0.3211669921875,0.40960693359375,0.69403076171875,71.59963580018783,3.630145584525948,4.910524711719335
249,10.000058399999944,bno085,-0.37109375,9.5,2.984375,-0.005859375,-0.009765625,-0.015625,0.4974365234375,0.3211669921875,0.40960693359375,0.69403076171875,71.59963580018783,3.630145584525948,4.910524711719335
250,10.040057909000097,bno085,-0.41015625,9.5,3.01953125,0.01171875,-0.041015625,-0.0234375,0.49700927734375,0.321044921875,0.40960693359375,0.69439697265625,71.53862856783176,3.6537841527872663,4.899588676049883
251,10.080057101999955,bno085,-0.41015625,9.5390625,2.984375,0.01171875,-0.041015625,-0.0234375,0.49713134765625,0.32080078125,0.408935546875,0.69476318359375,71.5308055906509,3.6788677364811857,4.806074894201862
252,10.120057352000003,bno085,-0.37109375,9.5390625,2.984375,0.001953125,-0.005859375,-0.03125,0.4970703125,0.32098388671875,0.40814208984375,0.6951904296875,71.53483455637164,3.756033623119772,4.734448083870272
253,10.160056878999967,bno085,-0.41015625,9.5,2.984375,0.021484375,-0.01171875,-0.001953125,0.49700927734375,0.3212890625,0.4080810546875,0.69512939453125,71.55117292456673,3.7847677485322526,4.752271294265763
254,10.20005714600029,bno085,-0.41015625,9.5390625,2.984375,-0.00390625,0.015625,-0.01953125,0.49700927734375,0.3212890625,0.4080810546875,0.69512939453125,71.55117292456673,3.7847677485322526,4.752271294265763
255,10.240056155000275,bno085,-0.41015625,9.47265625,2.984375,0.0078125,0.005859375,-0.009765625,0.49688720703125,0.3216552734375,0.40789794921875,0.6951904296875,71.56506715019218,3.83245037625023,4.762339817816841
256,10.280058256000302,bno085,-0.41015625,9.5,2.984375,0.0078125,0.005859375,-0.009765625,0.49676513671875,0.32183837890625,0.40802001953125,0.69512939453125,71.56532451939695,3.8440197639323164,4.790211295854626
257,10.320056764000128,bno085,-0.41015625,9.5390625,3.01953125,-0.033203125,0.015625,0.01953125,0.4962158203125,0.32177734375,0.40869140625,0.69512939453125,71.49648655378458,3.827871098709467,4.8561313165025775
258,10.360058624999965,bno085,-0.44921875,9.50390625,3.05859375,0.029296875,-0.01953125,-0.048828125,0.49615478515625,0.3221435546875,0.40814208984375,0.6953125,71.51558499805088,3.8974679504623486,4.825533744733203
259,10.400058985000214,bno085,-0.44921875,9.46875,2.984375,-0.044921875,0.03515625,-0.00390625,0.49615478515625,0.3221435546875,0.40814208984375,0.6953125,71.51558499805088,3.8974679504623486,4.825533744733203
260,10.440057808000347,bno085,-0.41015625,9.47265625,3.05859375,0.009765625,0.0,0.0078125,0.49554443359375,0.32220458984375,0.40863037109375,0.6954345703125,71.44880896734573,3.9086454908290817,4.881813651419609
261,10.480057558000226,bno085,-0.44921875,9.54296875,3.01953125,0.009765625,0.0,0.0078125,0.49530029296875,0.322021484375,0.40924072265625,0.6953125,71.40702735171199,3.867233553408613,4.932263793067837
262,10.520057399000052,bno085,-0.41015625,9.5,3.01953125,-0.052734375,0.009765625,0.01171875,0.4945068359375,0.32171630859375,0.40972900390625,0.69580078125,71.2906465656772,3.8707541949012554,4.95997924053156
263,10.560058334000132,bno085,-0.41015625,9.50390625,3.09765625,-0.12109375,0.048828125,0.021484375,0.4921875,0.321044921875,0.41143798828125,0.69671630859375,70.96560961552584,3.8656621562257016,5.085041040134603
264,10.60005737900019,bno085,-0.33203125,9.54296875,3.13671875,-0.45703125,0.130859375,0.076171875,0.4921875,0.321044921875,0.41143798828125,0.69671630859375,70.96560961552584,3.8656621562257016,5.085041040134603
265,10.64005699900008,bno085,-0.44921875,9.50390625,3.17578125,-0.572265625,0.126953125,0.099609375,0.4837646484375,0.31793212890625,0.41729736328125,0.7005615234375,69.73984862021827,3.8358712163179707,5.455991713657829
266,10.680057285000203,bno085,-0.296875,9.54296875,3.3671875,-0.572265625,0.126953125,0.099609375,0.4735107421875,0.31280517578125,0.42462158203125,0.7054443359375,68.158118207411,3.6986526769859966,5.837523836515881
267,10.720058534000145,bno085,-0.140625,8.9296875,3.671875,-0.849609375,0.029296875,0.48828125,0.46240234375,0.29998779296875,0.43902587890625,0.70953369140625,65.93078527282174,2.590218599777569,6.458041133462044
268,10.76005730199995,bno085,-0.02734375,9.01171875,4.1328125,-0.81640625,-0.1796875,0.56640625,0.4537353515625,0.28192138671875,0.4537353515625,0.7132568359375,63.623773956057185,0.9185501738749466,6.822666676061718
269,10.800057810999988,bno085,0.0859375,9.05078125,4.3984375,-0.6953125,-0.8359375,0.6953125,0.4537353515625,0.28192138671875,0.4537353515625,0.7132568359375,63.623773956057185,0.9185501738749466,6.822666676061718
270,10.840062393000153,bno085,0.77734375,8.89453125,4.3984375,-0.3984375,-1.318359375,0.904296875,0.45361328125,0.25225830078125,0.46319580078125,0.7183837890625,61.50900128800608,-1.860627581348925,5.911190884075313
271,10.88005967900017,bno085,1.12109375,8.66796875,4.62890625,-0.3984375,-1.318359375,0.904296875,0.46478271484375,0.2142333984375,0.467529296875,0.72076416015625,60.28555953264473,-5.807054751033201,4.0199384473454804
272,10.920058725000217,bno085,1.46484375,8.625,4.8984375,-0.517578125,-1.080078125,0.90234375,0.47479248046875,0.177978515625,0.4735107421875,0.72021484375,59.24459088846781,-9.751691714245961,2.6042002872430783
273,10.960057252000297,bno085,2.00390625,8.51171875,4.74609375,-0.34765625,-1.068359375,1.06640625,0.48419189453125,0.14190673828125,0.48089599609375,0.717041015625,58.30397482855839,-13.82903021974227,1.5185527624858852
274,11.000056316000155,bno085,2.578125,7.93359375,5.05078125,-0.625,-0.80859375,1.046875,0.48419189453125,0.14190673828125,0.48089599609375,0.717041015625,58.30397482855839,-13.82903021974227,1.5185527624858852
275,11.040057194999918,bno085,3.15234375,7.8203125,5.08984375,-0.912109375,-0.787109375,0.939453125,0.48638916015625,0.1087646484375,0.492919921875,0.713134765625,56.712119766429055,-17.56077144524393,1.381267024871589
276,11.080056887999945,bno085,3.6484375,7.6640625,4.8203125,-0.912109375,-0.787109375,0.939453125,0.48272705078125,0.072998046875,0.5025634765625,0.7135009765625,54.346457008787105,-21.036105246580924,1.1062982901123832
277,11.120057266999993,bno085,4.26171875,7.01953125,5.12890625,-0.7734375,-1.091796875,1.427734375,0.48492431640625,0.029052734375,0.5135498046875,0.70733642578125,52.35112852770875,-25.83536882193407,0.841938464043557
278,11.160056442000041,bno085,4.68359375,6.7421875,5.16796875,-0.751953125,-1.2265625,1.22265625,0.4871826171875,-0.01678466796875,0.52069091796875,0.70086669921875,50.42786152282614,-30.72173907345742,0.28366076088680237
279,11.200057581000237,bno085,5.14453125,6.29296875,5.16796875,-1.009765625,-1.32421875,0.986328125,0.4871826171875,-0.01678466796875,0.52069091796875,0.70086669921875,50.42786152282614,-30.72173907345742,0.28366076088680237
280,11.240057793000233,bno085,5.71875,5.63671875,4.9375,-0.865234375,-1.060546875,0.826171875,0.4847412109375,-0.065185546875,0.5225830078125,0.6983642578125,48.00357399211669,-35.38028999541387,-0.6571654851106989
281,11.28005698600009,bno085,6.1796875,5.40625,5.12890625,-0.865234375,-1.060546875,0.826171875,0.4814453125,-0.10565185546875,0.521728515625,0.6962890625,45.93896606559447,-39.1998502666137,-1.5157541430678456
282,11.320057865000308,bno085,6.484375,5.4453125,5.28125,-0.71875,-0.716796875,0.5625,0.4769287109375,-0.13604736328125,0.51922607421875,0.696044921875,44.20454445613855,-41.9185603064175,-2.213379348492957
283,11.360057039999901,bno085,6.63671875,4.91015625,4.8203125,-1.09375,-0.6875,0.875,0.46490478515625,-0.16845703125,0.52166748046875,0.6951904296875,40.98147906978602,-44.695762454798775,-1.6172833677608907
284,11.40005715999996,bno085,7.25,4.52734375,5.2421875,-0.8984375,-0.8359375,0.619140625,0.4581298828125,-0.20147705078125,0.5184326171875,0.693359375,38.736955057684376,-47.68177468709333,-1.935170991735946
285,11.44005739100021,bno085,7.515625,4.41015625,5.12890625,-0.6484375,-0.58984375,0.4765625,0.4581298828125,-0.20147705078125,0.5184326171875,0.693359375,38.736955057684376,-47.68177468709333,-1.935170991735946
286,11.480057473000215,bno085,7.51953125,4.06640625,4.78515625,-0.6484375,-0.58984375,0.4765625,0.4525146484375,-0.22686767578125,0.51513671875,0.691650390625,36.94931020420717,-49.97796505116639,-2.1410761476171207
287,11.520057147999978,bno085,8.09765625,3.1484375,3.44140625,-0.650390625,-1.37109375,0.447265625,0.45477294921875,-0.260986328125,0.505859375,0.68499755859375,36.47985323749688,-53.59776065201407,-3.73780513818813
288,11.560056804999931,bno085,8.5859375,5.21484375,5.2421875,5.169921875,-1.6484375,0.826171875,0.49139404296875,-0.2828369140625,0.50750732421875,0.6488037109375,41.96256645261993,-58.779239710609936,-6.0757636632158105
289,11.60005983200017,bno085,8.625,3.33984375,3.7109375,-0.673828125,-1.720703125,1.177734375,0.49139404296875,-0.2828369140625,0.50750732421875,0.6488037109375,41.96256645261993,-58.779239710609936,-6.0757636632158105
290,11.640058285000123,bno085,8.28125,2.95703125,3.75,-1.11328125,-1.89453125,0.826171875,0.49273681640625,-0.33502197265625,0.49755859375,0.63043212890625,41.613638086109795,-64.74625148438938,-8.191372153029308
291,11.680057423000108,bno085,9.39453125,2.3046875,2.29296875,-0.26953125,-0.923828125,0.921875,0.49212646484375,-0.3865966796875,0.47833251953125,0.6160888671875,43.15748733289133,-70.28103062379553,-13.01773887713966
292,11.720056802000272,bno085,9.3203125,1.99609375,2.33203125,-0.26953125,-0.923828125,0.921875,0.48980712890625,-0.41680908203125,0.47674560546875,0.59918212890625,42.216752358639866,-74.1471389639011,-13.033307300884967
293,11.760057588000109,bno085,9.2421875,1.9609375,2.140625,-0.16015625,-0.6328125,0.5078125,0.4886474609375,-0.43389892578125,0.47540283203125,0.58905029296875,41.79934811819986,-76.37889117527594,-13.100589231247595
294,11.800056893000146,bno085,9.625,1.73046875,1.375,-0.232421875,-0.685546875,0.025390625,0.49169921875,-0.4462890625,0.4664306640625,0.5843505859375,45.77289748999924,-77.76583347831728,-17.870299298978583
295,11.84006029000011,bno085,9.70703125,1.61328125,1.18359375,-0.185546875,-0.552734375,0.271484375,0.49169921875,-0.4462890625,0.4664306640625,0.5843505859375,45.77289748999924,-77.76583347831728,-17.870299298978583
296,11.880059353999968,bno085,9.70703125,1.61328125,1.14453125,-0.185546875,-0.552734375,0.271484375,0.49267578125,-0.45880126953125,0.46160888671875,0.57763671875,48.419475035617225,-79.2976374162257,-21.04935414914093
297,11.920056343999931,bno085,9.85546875,1.3828125,1.02734375,-0.16015625,-0.353515625,0.166015625,0.49212646484375,-0.46881103515625,0.4581298828125,0.5728759765625,50.3043234116589,-80.4709051074593,-23.420869513243595
298,11.960057464000329,bno085,9.7734375,1.421875,0.76171875,-0.013671875,-0.396484375,0.078125,0.49468994140625,-0.47589111328125,0.45416259765625,0.56793212890625,54.553443914889286,-81.34061229046767,-27.882679848482503
299,12.000055880000218,bno085,10.125,1.34765625,0.953125,-0.099609375,-0.26171875,0.0546875,0.49468994140625,-0.47589111328125,0.45416259765625,0.56793212890625,54.553443914889286,-81.34061229046767,-27.882679848482503
300,12.040055277000192,bno085,9.62890625,1.34765625,0.5703125,-0.134765625,-0.25390625,0.119140625,0.49603271484375,-0.48260498046875,0.450439453125,0.56402587890625,58.62101312918155,-82.07705358085718,-32.252342627852876
301,12.08005806400024,bno085,9.74609375,1.26953125,0.53125,-0.10546875,-0.224609375,0.0859375,0.4962158203125,-0.4886474609375,0.44781494140625,0.560791015625,61.890204972832414,-82.72714647697391,-35.78339889325622
302,12.120057683000141,bno085,9.8125,1.23046875,0.453125,-0.10546875,-0.224609375,0.0859375,0.496337890625,-0.4931640625,0.445068359375,0.55889892578125,65.02811468070269,-83.12918335230589,-39.226063386022325
303,12.160057969000263,bno085,9.81640625,1.19140625,0.37890625,0.015625,-0.095703125,0.00390625,0.4969482421875,-0.494873046875,0.443603515625,0.5579833984375,66.99253705787046,-83.25487224154622,-41.30132430424659
304,12.200056756000322,bno085,9.7421875,1.26953125,0.37890625,0.00390625,-0.107421875,0.009765625,0.4969482421875,-0.494873046875,0.443603515625,0.5579833984375,66.99253705787046,-83.25487224154622,-41.30132430424659
305,12.240055653000127,bno085,9.7734375,1.23046875,0.33984375,0.02734375,-0.048828125,0.017578125,0.49774169921875,-0.49615478515625,0.442626953125,0.556884765625,68.79980419245393,-83.36449048292236,-43.146600185002754
306,12.28005543900008,bno085,9.7734375,1.23046875,0.33984375,0.02734375,-0.048828125,0.017578125,0.4986572265625,-0.4967041015625,0.44244384765625,0.55572509765625,70.08689186894999,-83.44476302111822,-44.35223861497816
307,12.320057133000319,bno085,9.7421875,1.23046875,0.30078125,0.009765625,-0.068359375,0.015625,0.49945068359375,-0.49725341796875,0.4422607421875,0.5546875,71.2866908636096,-83.51868957268275,-45.47363028048018
308,12.360056271000303,bno085,9.7734375,1.19140625,0.26171875,0.033203125,-0.03515625,0.009765625,0.50018310546875,-0.497314453125,0.44219970703125,0.5540771484375,72.08606239953168,-83.53398286957605,-46.16579113730556
309,12.400056260999918,bno085,9.74609375,1.23046875,0.26171875,0.013671875,-0.01953125,0.0078125,0.50018310546875,-0.497314453125,0.44219970703125,0.5540771484375,72.08606239953168,-83.53398286957605,-46.16579113730556
310,12.440056807000019,bno085,9.74609375,1.23046875,0.26171875,0.00390625,-0.01171875,-0.009765625,0.50079345703125,-0.49713134765625,0.44207763671875,0.55377197265625,72.60326044633335,-83.5111696912028,-46.637711366357514
311,12.480056814999898,bno085,9.7734375,1.19140625,0.26171875,0.00390625,-0.01171875,-0.009765625,0.5008544921875,-0.49688720703125,0.44189453125,0.55401611328125,72.53634459485211,-83.46574457684287,-46.62140987594904
312,12.520057046000147,bno085,9.7734375,1.19140625,0.2265625,0.009765625,-0.00390625,0.00390625,0.49969482421875,-0.4945068359375,0.44293212890625,0.556396484375,69.5920982835893,-83.2164721838592,-43.663994241695704
313,12.56005696200009,bno085,9.7734375,1.23046875,0.26171875,0.00390625,-0.04296875,0.0078125,0.4993896484375,-0.49365234375,0.44317626953125,0.55718994140625,68.72382246771991,-83.1170271369336,-42.82572683172946
314,12.60005535900018,bno085,9.7734375,1.23046875,0.2265625,-0.00390625,-0.001953125,0.0078125,0.4993896484375,-0.49365234375,0.44317626953125,0.55718994140625,68.72382246771991,-83.1170271369336,-42.82572683172946
315,12.640056460000324,bno085,9.7734375,1.23046875,0.2265625,0.001953125,0.0,0.005859375,0.49908447265625,-0.493408203125,0.4432373046875,0.55767822265625,68.29110113282245,-83.07886639332078,-42.39120407651321
316,12.680056728000181,bno085,9.7734375,1.19140625,0.2265625,0.001953125,0.0,0.005859375,0.498779296875,-0.4931640625,0.4434814453125,0.55792236328125,67.78943339870875,-83.0617640731102,-41.92578773852801
317,12.720056661999934,bno085,9.7734375,1.19140625,0.26171875,-0.025390625,0.025390625,0.0,0.498291015625,-0.49285888671875,0.4437255859375,0.5584716796875,67.10535607244016,-83.02636253103097,-41.24591503347513
318,12.760056689000066,bno085,9.74609375,1.23046875,0.26171875,0.00390625,0.03515625,0.005859375,0.49761962890625,-0.49212646484375,0.44439697265625,0.5592041015625,65.90105369607959,-82.96447670044319,-40.027929541315494
319,12.800055383000199,bno085,9.7734375,1.23046875,0.26171875,-0.0078125,0.02734375,0.02734375,0.49761962890625,-0.49212646484375,0.44439697265625,0.5592041015625,65.90105369607959,-82.96447670044319,-40.027929541315494
320,12.840060355000332,bno085,9.77734375,1.19140625,0.30078125,0.015625,0.01171875,-0.001953125,0.49676513671875,-0.49188232421875,0.4449462890625,0.5596923828125,64.8189697079457,-82.95459497536257,-39.00912300874999
321,12.88005836299999,bno085,9.77734375,1.19140625,0.30078125,0.001953125,-0.041015625,-0.009765625,0.49676513671875,-0.49151611328125,0.4453125,0.559814453125,64.53358719233448,-82.93178033008007,-38.62927975207039
322,12.920058612000048,bno085,9.77734375,1.19140625,0.30078125,0.001953125,-0.041015625,-0.009765625,0.4974365234375,-0.49163818359375,0.44482421875,0.5594482421875,65.34911584583622,-82.92942696656138,-39.45381744610397
323,12.960058251000191,bno085,9.77734375,1.19140625,0.30078125,0.021484375,-0.025390625,-0.015625,0.49810791015625,-0.491455078125,0.4443359375,0.559326171875,66.00727976485032,-82.88435272731961,-40.13205545607026
324,13.00005559200008,bno085,9.74609375,1.23046875,0.2265625,-0.0078125,-0.021484375,-0.001953125,0.49835205078125,-0.49139404296875,0.4439697265625,0.55950927734375,66.32303242533067,-82.84765355210503,-40.42668974891014
325,13.040055768000002,bno085,9.7734375,1.19140625,0.2265625,0.001953125,-0.005859375,0.005859375,0.49835205078125,-0.49139404296875,0.4439697265625,0.55950927734375,66.32303242533067,-82.84765355210503,-40.42668974891014
326,13.080055795000135,bno085,9.7734375,1.23046875,0.2265625,-0.00390625,0.02734375,0.025390625,0.4981689453125,-0.4915771484375,0.4439697265625,0.55950927734375,66.25198238141151,-82.86758968177924,-40.37774634497853
327,13.120058266000342,bno085,9.7734375,1.19140625,0.26171875,-0.00390625,0.02734375,0.025390625,0.49761962890625,-0.4913330078125,0.444580078125,0.55975341796875,65.4464230488325,-82.87038057335779,-39.551972463514815
328,13.16005683000003,bno085,9.7734375,1.19140625,0.26171875,0.01171875,0.015625,-0.001953125,0.497802734375,-0.4908447265625,0.44476318359375,0.55987548828125,65.31090680453457,-82.82439362082745,-39.373880029008845
329,13.20005706100028,bno085,9.74609375,1.23046875,0.26171875,-0.009765625,-0.0078125,0.017578125,0.49761962890625,-0.4910888671875,0.4447021484375,0.559814453125,65.27705548183141,-82.84976284599936,-39.40135463518559
330,13.24005762500019,bno085,9.7734375,1.19140625,0.2265625,-0.0078125,-0.013671875,0.009765625,0.49761962890625,-0.4910888671875,0.4447021484375,0.559814453125,65.27705548183141,-82.84976284599936,-39.40135463518559
331,13.280063541000345,bno085,9.77734375,1.15625,0.26171875,-0.0234375,-0.005859375,0.0,0.49749755859375,-0.491455078125,0.4447021484375,0.55963134765625,65.35172353312375,-82.89571346679713,-39.47375973125265
332,13.320056068000213,bno085,9.7734375,1.19140625,0.2265625,-0.0234375,-0.005859375,0.0,0.49737548828125,-0.49176025390625,0.4444580078125,0.55963134765625,65.46856187645662,-82.91404554556435,-39.65108135774703
333,13.360057317000155,bno085,9.77734375,1.15625,0.1875,-0.03125,0.005859375,0.03125,0.49676513671875,-0.4920654296875,0.44464111328125,0.55975341796875,65.00931888928169,-82.95385665978262,-39.24445873140404
334,13.400056789000246,bno085,9.7734375,1.19140625,0.26171875,-0.005859375,0.033203125,0.017578125,0.4962158203125,-0.49151611328125,0.44537353515625,0.56024169921875,64.0231036259053,-82.91913568621906,-38.178704593514965
335,13.440056426999945,bno085,9.7734375,1.19140625,0.26171875,0.021484375,-0.005859375,0.0078125,0.4962158203125,-0.49151611328125,0.44537353515625,0.56024169921875,64.0231036259053,-82.91913568621906,-38.178704593514965
336,13.480056454000078,bno085,9.77734375,1.15625,0.26171875,-0.00390625,-0.009765625,0.001953125,0.49627685546875,-0.49139404296875,0.4456787109375,0.55999755859375,63.90153325952348,-82.93352917699337,-38.050220231404495
337,13.520057146999989,bno085,9.77734375,1.15625,0.2265625,-0.00390625,-0.009765625,0.001953125,0.4964599609375,-0.49151611328125,0.4456787109375,0.5596923828125,64.11380758067875,-82.95864225471445,-38.26447876322317
338,13.560057767000217,bno085,9.77734375,1.15625,0.26171875,0.001953125,-0.005859375,0.00390625,0.49658203125,-0.49151611328125,0.44573974609375,0.55963134765625,64.21899089828817,-82.96397302244286,-38.292737848967825
339,13.600057960999948,bno085,9.77734375,1.15625,0.26171875,0.01171875,0.015625,-0.001953125,0.49676513671875,-0.49127197265625,0.44580078125,0.55963134765625,64.24522755006029,-82.94136453482336,-38.29353377115064
340,13.640056968999943,bno085,9.77734375,1.15625,0.26171875,0.001953125,0.00390625,-0.01171875,0.49676513671875,-0.49127197265625,0.44580078125,0.55963134765625,64.24522755006029,-82.94136453482336,-38.29353377115064
341,13.680057126000065,bno085,9.77734375,1.15625,0.26171875,0.0078125,0.0,-0.0078125,0.49688720703125,-0.49114990234375,0.4456787109375,0.5596923828125,64.33288634602137,-82.91898018269093,-38.40100667418996
342,13.720056578999902,bno085,9.7734375,1.19140625,0.26171875,0.0078125,0.0,-0.0078125,0.49713134765625,-0.49102783203125,0.44561767578125,0.5595703125,64.5018343319727,-82.90731377970032,-38.585274900367295
343,13.760056606000035,bno085,9.7734375,1.19140625,0.2265625,0.0078125,-0.005859375,-0.01171875,0.4974365234375,-0.490966796875,0.44549560546875,0.55950927734375,64.79664204050815,-82.8953538032049,-38.824334230481476
344,13.800057355000263,bno085,9.7734375,1.19140625,0.26171875,0.005859375,-0.029296875,-0.00390625,0.49786376953125,-0.49102783203125,0.4451904296875,0.55926513671875,65.29934882908783,-82.89292155805222,-39.344193165606626
345,13.840059308000036,bno085,9.7734375,1.19140625,0.1875,-0.005859375,-0.013671875,-0.013671875,0.49786376953125,-0.49102783203125,0.4451904296875,0.55926513671875,65.29934882908783,-82.89292155805222,-39.344193165606626
346,13.880059871999947,bno085,9.7734375,1.19140625,0.1875,0.0078125,0.0,-0.013671875,0.49822998046875,-0.4912109375,0.44476318359375,0.5592041015625,65.87315357576071,-82.88774396792827,-39.87367364678986
347,13.920057307000206,bno085,9.7734375,1.19140625,0.2265625,0.0078125,0.0,-0.013671875,0.49847412109375,-0.4910888671875,0.444580078125,0.5592041015625,66.08369252559953,-82.86339706525374,-40.09680696722021
348,13.960057019000033,bno085,9.7734375,1.19140625,0.26171875,-0.001953125,0.0234375,-0.013671875,0.49835205078125,-0.49066162109375,0.4447021484375,0.55963134765625,65.73235352521608,-82.80926744200093,-39.72054707114761
349,14.000057824000123,bno085,9.7734375,1.19140625,0.26171875,-0.005859375,0.025390625,0.00390625,0.49786376953125,-0.490234375,0.44500732421875,0.5601806640625,64.99601547831601,-82.76204095408364,-39.01301012550939
350,14.040057314000023,bno085,9.7734375,1.19140625,0.2265625,0.005859375,0.00390625,0.0078125,0.49786376953125,-0.490234375,0.44500732421875,0.5601806640625,64.99601547831601,-82.76204095408364,-39.01301012550939
351,14.080059469999924,bno085,9.7734375,1.19140625,0.26171875,0.0078125,0.001953125,-0.00390625,0.4974365234375,-0.49005126953125,0.4453125,0.5604248046875,64.42676934531667,-82.75178006921416,-38.487933700257194
352,14.12005688599993,bno085,9.7734375,1.19140625,0.26171875,0.0078125,0.001953125,-0.00390625,0.4974365234375,-0.48992919921875,0.4454345703125,0.5604248046875,64.32746985212623,-82.74592520504522,-38.3808400229252
353,14.160056875999999,bno085,9.7734375,1.19140625,0.26171875,0.0,-0.013671875,-0.01171875,0.4976806640625,-0.4898681640625,0.4451904296875,0.56048583984375,64.59957303339843,-82.72244582407994,-38.63410610449445
354,14.20005692199993,bno085,9.7734375,1.19140625,0.26171875,0.005859375,-0.0234375,-0.001953125,0.49798583984375,-0.489990234375,0.4449462890625,0.56036376953125,65.01351247252006,-82.72506471125779,-39.00559398382987
355,14.240058412000053,bno085,9.7734375,1.19140625,0.2265625,0.001953125,-0.009765625,0.001953125,0.49798583984375,-0.489990234375,0.4449462890625,0.56036376953125,65.01351247252006,-82.72506471125779,-39.00559398382987
356,14.280058124000334,bno085,9.7734375,1.19140625,0.2265625,0.021484375,-0.009765625,-0.009765625,0.49798583984375,-0.4901123046875,0.44482421875,0.560302734375,65.10221037861552,-82.7335004099669,-39.13705754495675
357,14.320057651000297,bno085,9.7421875,1.26953125,0.2265625,0.021484375,-0.009765625,-0.009765625,0.498291015625,-0.489990234375,0.44488525390625,0.56011962890625,65.29491832269471,-82.73048380963435,-39.272408865105554
358,14.360057048000272,bno085,9.7734375,1.19140625,0.2265625,-0.009765625,-0.005859375,0.0078125,0.498291015625,-0.49017333984375,0.44482421875,0.55999755859375,65.40013176623606,-82.75104041371972,-39.39079574278073
359,14.400056890000087,bno085,9.7734375,1.19140625,0.26171875,-0.005859375,0.013671875,0.00390625,0.49810791015625,-0.49005126953125,0.44500732421875,0.56011962890625,65.12175248255235,-82.744588556176,-39.11376052077795
360,14.440057972999966,bno085,9.7734375,1.19140625,0.2265625,0.009765625,-0.001953125,0.009765625,0.49810791015625,-0.49005126953125,0.44500732421875,0.56011962890625,65.12175248255235,-82.744588556176,-39.11376052077795
361,14.480058037000163,bno085,9.7734375,1.19140625,0.2265625,-0.005859375,0.01171875,0.001953125,0.49810791015625,-0.49017333984375,0.44500732421875,0.55999755859375,65.17658965617571,-82.76235223188556,-39.17793361117261
362,14.520057638000253,bno085,9.7734375,1.19140625,0.2265625,-0.005859375,0.01171875,0.001953125,0.49798583984375,-0.49005126953125,0.4451904296875,0.56005859375,64.94993130507812,-82.75808366093173,-38.94982205338481
363,14.5600568320001,bno085,9.7734375,1.19140625,0.26171875,-0.00390625,0.021484375,0.0078125,0.4976806640625,-0.4898681640625,0.44549560546875,0.56024169921875,64.49559327758261,-82.74975933496768,-38.49901478506522
364,14.600057377000212,bno085,9.77734375,1.15625,0.26171875,-0.005859375,-0.013671875,0.0,0.49761962890625,-0.4898681640625,0.44549560546875,0.560302734375,64.44392348110286,-82.74739490496069,-38.450041946125495
365,14.640057275000345,bno085,9.7734375,1.19140625,0.26171875,0.00390625,-0.0078125,0.00390625,0.49761962890625,-0.4898681640625,0.44549560546875,0.560302734375,64.44392348110286,-82.74739490496069,-38.450041946125495
366,14.680057468000086,bno085,9.7734375,1.19140625,0.2265625,-0.021484375,0.01171875,-0.001953125,0.4976806640625,-0.489990234375,0.4454345703125,0.5601806640625,64.57199046908106,-82.76158759385187,-38.58404919946169
367,14.720056272999955,bno085,9.7734375,1.19140625,0.26171875,-0.021484375,0.01171875,-0.001953125,0.49749755859375,-0.489990234375,0.44537353515625,0.56036376953125,64.42874318052553,-82.75122444097323,-38.48333939792842
368,14.760056411000278,bno085,9.7734375,1.19140625,0.26171875,-0.017578125,0.01171875,-0.001953125,0.49725341796875,-0.489990234375,0.4453125,0.56060791015625,64.23440801065712,-82.73844475040522,-38.3340883017844
369,14.800059475000126,bno085,9.7734375,1.19140625,0.26171875,-0.01953125,0.0078125,0.00390625,0.49688720703125,-0.48992919921875,0.4454345703125,0.5609130859375,63.853280547682026,-82.72704515316433,-37.96568879203727
370,14.840059391000068,bno085,9.7421875,1.19140625,0.30078125,0.013671875,-0.048828125,0.009765625,0.49688720703125,-0.48992919921875,0.4454345703125,0.5609130859375,63.853280547682026,-82.72704515316433,-37.96568879203727
371,14.88005954800019,bno085,9.7734375,1.19140625,0.2265625,0.00390625,-0.060546875,-0.009765625,0.497314453125,-0.4901123046875,0.44549560546875,0.56036376953125,64.29130437572643,-82.77123431118397,-38.32971998830818
372,14.920058982000228,bno085,9.7734375,1.19140625,0.2265625,0.00390625,-0.060546875,-0.009765625,0.49798583984375,-0.49078369140625,0.4447021484375,0.55975341796875,65.45208721729925,-82.81901544885224,-39.536665261756795
373,14.960056528000223,bno085,9.74609375,1.19140625,0.1875,-0.0078125,-0.05078125,-0.009765625,0.4984130859375,-0.49139404296875,0.4439697265625,0.55950927734375,66.38656867834256,-82.84703944754654,-40.45228002043235
374,15.000057944000218,bno085,9.77734375,1.19140625,0.1484375,-0.009765625,-0.0625,0.00390625,0.49884033203125,-0.4923095703125,0.443115234375,0.5589599609375,67.50622270998404,-82.91010121217515,-41.64275525504882
375,15.040057119000267,bno085,9.77734375,1.19140625,0.109375,0.001953125,0.01953125,0.013671875,0.49884033203125,-0.4923095703125,0.443115234375,0.5589599609375,67.50622270998404,-82.91010121217515,-41.64275525504882
376,15.080058146000283,bno085,9.7734375,1.19140625,0.1875,-0.0078125,0.03125,0.009765625,0.49871826171875,-0.49237060546875,0.4432373046875,0.55889892578125,67.38721422469075,-82.92709495227685,-41.5357124528866
377,15.12005722899994,bno085,9.7734375,1.19140625,0.1875,-0.0078125,0.03125,0.009765625,0.498046875,-0.49212646484375,0.4437255859375,0.559326171875,66.50055327591267,-82.91809701199384,-40.66928275178798
378,15.160057922000306,bno085,9.7734375,1.19140625,0.1875,-0.01953125,0.107421875,0.013671875,0.4964599609375,-0.49090576171875,0.44512939453125,0.56072998046875,64.03868517965967,-82.82077690112662,-38.20513819460705
379,15.200057727000058,bno085,9.7734375,1.19140625,0.26171875,-0.00390625,0.18359375,0.048828125,0.494140625,-0.48919677734375,0.44744873046875,0.5623779296875,60.478562726099256,-82.69560718384996,-34.67150638826091
380,15.24005738400001,bno085,9.8125,1.15625,0.41796875,-0.0859375,0.115234375,0.04296875,0.494140625,-0.48919677734375,0.44744873046875,0.5623779296875,60.478562726099256,-82.69560718384996,-34.67150638826091
381,15.280056800000239,bno085,9.7734375,1.078125,0.30078125,0.00390625,0.0625,0.0078125,0.490966796875,-0.4888916015625,0.44854736328125,0.5645751953125,57.322497933468284,-82.60829809396121,-31.72258478454278
382,15.320058548999896,bno085,9.8125,1.1171875,0.41796875,0.00390625,0.0625,0.0078125,0.48956298828125,-0.48748779296875,0.44989013671875,0.56591796875,55.231041088041614,-82.44797175961791,-29.6454595916294
383,15.360056761000124,bno085,9.77734375,1.19140625,0.53125,-0.033203125,0.283203125,-0.00390625,0.486328125,-0.4842529296875,0.45269775390625,0.56927490234375,50.90468672372522,-82.02214305824123,-25.3293132841636
384,15.400057585000013,bno085,9.7734375,1.1171875,0.64453125,-0.037109375,0.265625,0.0078125,0.482666015625,-0.4814453125,0.45538330078125,0.5726318359375,46.848184160938445,-81.59199415897275,-21.357890411826197
385,15.440055760000178,bno085,9.77734375,1.078125,0.76171875,-0.044921875,0.203125,-0.03125,0.482666015625,-0.4814453125,0.45538330078125,0.5726318359375,46.848184160938445,-81.59199415897275,-21.357890411826197
386,15.480056805999993,bno085,9.703125,1.23046875,0.8359375,0.00390625,0.1171875,0.0,0.48004150390625,-0.478759765625,0.4573974609375,0.575439453125,44.117044625442794,-81.17103149453492,-18.695597092119264
387,15.520057610000094,bno085,9.74609375,1.15625,0.875,0.00390625,0.1171875,0.0,0.477783203125,-0.47711181640625,0.4588623046875,0.5775146484375,42.09885713431087,-80.87754738626626,-16.751556745992133
388,15.56005552600027,bno085,9.74609375,1.15625,0.953125,-0.025390625,0.130859375,-0.0078125,0.47576904296875,-0.47528076171875,0.4600830078125,0.5797119140625,40.45210359736683,-80.54992202217922,-15.174564934438944
389,15.600057257000117,bno085,9.7734375,1.1171875,0.9140625,-0.0625,0.109375,0.037109375,0.47308349609375,-0.47479248046875,0.4609375,0.5816650390625,38.675199068363675,-80.34643577065688,-13.568174334221785
390,15.640055729000323,bno085,9.7734375,1.15625,0.9921875,-0.263671875,0.224609375,-0.0390625,0.47308349609375,-0.47479248046875,0.4609375,0.5816650390625,38.675199068363675,-80.34643577065688,-13.568174334221785
391,15.680056737000086,bno085,9.74609375,1.23046875,1.06640625,-0.5859375,0.7734375,0.037109375,0.467041015625,-0.47412109375,0.46063232421875,0.5872802734375,35.83177354098513,-79.81026576148788,-11.396582378230047
392,15.72005733800006,bno085,9.96875,1.23046875,1.48828125,-0.5859375,0.7734375,0.037109375,0.45025634765625,-0.470703125,0.46221923828125,0.6016845703125,28.438044481523995,-78.16687714314453,-5.542519944592999
393,15.760057864999908,bno085,9.89453125,0.84765625,1.83203125,-0.974609375,1.103515625,0.328125,0.42071533203125,-0.4674072265625,0.4681396484375,0.62078857421875,17.43090273389058,-75.6001160088548,3.173396182765771
394,15.80005572600021,bno085,9.46875,0.3125,2.41015625,-1.33203125,1.734375,0.5859375,0.37249755859375,-0.4635009765625,0.4708251953125,0.6517333984375,6.56307350703807,-71.23532585940376,9.738172760199577
395,15.840060623000227,bno085,9.359375,0.234375,3.17578125,-0.62890625,1.287109375,0.2578125,0.37249755859375,-0.4635009765625,0.4708251953125,0.6517333984375,6.56307350703807,-71.23532585940376,9.738172760199577
396,15.880059557000095,bno085,9.203125,0.16015625,3.48046875,-0.314453125,0.703125,0.2734375,0.33758544921875,-0.45562744140625,0.4713134765625,0.67547607421875,1.9260454458520841,-67.50837631069699,11.293286571896783
397,15.920057010000164,bno085,9.28125,-0.1484375,3.94140625,-0.314453125,0.703125,0.2734375,0.31280517578125,-0.4527587890625,0.4693603515625,0.6905517578125,-1.059176529782398,-65.23970015202259,11.883524479547527
398,15.960057888999927,bno085,8.55859375,-0.4140625,4.20703125,-0.921875,1.0859375,0.119140625,0.279296875,-0.45172119140625,0.461669921875,0.71051025390625,-4.546222487894883,-62.598766144349725,11.636104784897608
399,16.000058379000166,bno085,8.98046875,0.234375,4.74609375,-1.30859375,1.0,0.44140625,0.23614501953125,-0.45526123046875,0.45306396484375,0.72918701171875,-9.868378660941447,-59.85037900926174,12.290862054881718
400,16.040057573000013,bno085,8.62890625,-0.64453125,4.78515625,-1.236328125,0.716796875,0.580078125,0.23614501953125,-0.45526123046875,0.45306396484375,0.72918701171875,-9.868378660941447,-59.85037900926174,12.290862054881718
401,16.08005847100003,bno085,8.7421875,-1.48828125,4.8984375,-1.390625,0.89453125,0.591796875,0.19647216796875,-0.46002197265625,0.44537353515625,0.7425537109375,-14.823181896236509,-57.562440233461416,13.022105638201483
402,16.120056905000183,bno085,8.36328125,-1.41015625,5.01171875,-1.390625,0.89453125,0.591796875,0.15362548828125,-0.46209716796875,0.4371337890625,0.75616455078125,-19.49719054361619,-54.86668986204806,13.240232835282109
403,16.160056968999925,bno085,8.3203125,-1.94921875,5.28125,-1.1796875,0.75390625,0.474609375,0.1146240234375,-0.4627685546875,0.429931640625,0.7667236328125,-23.488520427353524,-52.36173738047212,13.251375236473883
404,16.200057329000174,bno085,7.94140625,-2.5625,5.16796875,-1.98828125,1.240234375,0.85546875,0.05181884765625,-0.46295166015625,0.4212646484375,0.7781982421875,-29.862877564760513,-48.270364738604925,13.552329811140737
405,16.240057894000074,bno085,7.7109375,-2.71484375,5.5859375,-2.01171875,1.9765625,0.08984375,0.05181884765625,-0.46295166015625,0.4212646484375,0.7781982421875,-29.862877564760513,-48.270364738604925,13.552329811140737
406,16.28005795800027,bno085,7.44140625,-3.75,5.55078125,-4.107421875,3.615234375,0.25390625,-0.0181884765625,-0.447265625,0.3997802734375,0.79986572265625,-34.05590534013227,-42.993299121649756,9.954701360390358
407,16.32005770700016,bno085,6.40625,-4.859375,5.5859375,-4.107421875,3.615234375,0.25390625,-0.12322998046875,-0.418212890625,0.3577880859375,0.82574462890625,-40.34730179556084,-35.64762022867954,3.423558200652151
408,16.36005680800008,bno085,5.83203125,-5.47265625,5.8515625,-0.3046875,0.248046875,0.880859375,-0.18316650390625,-0.403076171875,0.341064453125,0.8292236328125,-44.89050314113982,-31.565735296507473,1.136164287457153
409,16.400056649999897,bno085,5.375,-5.96875,5.85546875,-1.1328125,0.87890625,0.94140625,-0.2216796875,-0.39495849609375,0.3350830078125,0.826171875,-48.21986948420011,-28.921743033085107,0.4309041989570167
410,16.440058584000326,bno085,5.4140625,-6.0078125,6.12890625,-2.54296875,1.568359375,0.060546875,-0.2216796875,-0.39495849609375,0.3350830078125,0.826171875,-48.21986948420011,-28.921743033085107,0.4309041989570167
411,16.4800577230003,bno085,4.609375,-7.27734375,5.12890625,-1.4921875,0.3671875,0.365234375,-0.2850341796875,-0.38385009765625,0.30279541015625,0.824462890625,-53.64730966847574,-26.133676659447694,-3.156292003221459
412,16.520057749999978,bno085,4.4921875,-7.1953125,5.08984375,-1.4921875,0.3671875,0.365234375,-0.3306884765625,-0.38006591796875,0.28643798828125,0.81494140625,-58.30070115987573,-24.22222008500707,-4.474808297674226
413,16.56005672099991,bno085,4.4921875,-7.578125,4.3984375,-1.466796875,0.576171875,0.21484375,-0.36737060546875,-0.378173828125,0.27313232421875,0.80462646484375,-62.25929153848636,-22.845992738890786,-5.4199355059433385
414,16.60005776700018,bno085,4.0703125,-7.76953125,4.24609375,-0.859375,0.2421875,0.841796875,-0.3935546875,-0.3726806640625,0.2774658203125,0.793212890625,-64.93693507841786,-20.655415184257638,-5.0320650417064705
415,16.640058904999933,bno085,4.30078125,-8.34375,3.3671875,-1.8359375,0.45703125,0.181640625,-0.4278564453125,-0.37396240234375,0.26409912109375,0.77935791015625,-69.05601324829411,-19.688880314412586,-5.729725867562925
416,16.680058395000287,bno085,4.2265625,-8.46484375,3.2890625,-0.751953125,0.19140625,0.01171875,-0.4278564453125,-0.37396240234375,0.26409912109375,0.77935791015625,-69.05601324829411,-19.688880314412586,-5.729725867562925
417,16.720056143999955,bno085,3.91796875,-8.50390625,3.2890625,-0.751953125,0.19140625,0.01171875,-0.44342041015625,-0.375,0.25732421875,0.7723388671875,-70.99767232610279,-19.338301962826737,-6.061425126620499
418,16.760057023000172,bno085,3.83984375,-8.3046875,3.40625,-0.453125,0.111328125,0.009765625,-0.45343017578125,-0.37542724609375,0.25311279296875,0.7677001953125,-72.24214939509736,-19.088887280160897,-6.276981068163358
419,16.800057939,bno085,3.83984375,-8.6484375,2.984375,-0.9296875,0.005859375,0.033203125,-0.47015380859375,-0.3802490234375,0.24462890625,0.75799560546875,-74.69858877213487,-19.061375697412732,-6.358306202205371
420,16.84006287300008,bno085,4.03125,-8.953125,2.75390625,-0.1171875,-0.83984375,0.54296875,-0.47015380859375,-0.3802490234375,0.24462890625,0.75799560546875,-74.69858877213487,-19.061375697412732,-6.358306202205371
421,16.880057937999936,bno085,3.95703125,-8.9921875,3.01953125,-0.05078125,-0.46875,0.5625,-0.4759521484375,-0.38934326171875,0.25750732421875,0.745361328125,-76.29251925904529,-18.333732508395677,-4.120488545891113
422,16.920056982999995,bno085,3.83984375,-9.41796875,2.63671875,-0.234375,0.728515625,0.78515625,-0.47943115234375,-0.39306640625,0.2735595703125,0.73541259765625,-77.12397732601184,-17.11304868836107,-2.160684593134957
423,16.96005612099998,bno085,3.3828125,-8.265625,1.796875,-0.234375,0.728515625,0.78515625,-0.49176025390625,-0.3758544921875,0.28094482421875,0.73345947265625,-77.16155351639073,-14.68401427558549,-3.018592590788466
424,17.00005798200027,bno085,3.0390625,-9.953125,1.10546875,-1.89453125,-0.654296875,-0.447265625,-0.52056884765625,-0.38311767578125,0.2579345703125,0.7181396484375,-81.3951818777861,-15.105322527595852,-4.1038341437796735
425,17.04005717500013,bno085,2.38671875,-9.76171875,3.7109375,-1.1328125,-0.556640625,0.453125,-0.54595947265625,-0.38812255859375,0.24884033203125,0.69952392578125,-85.14193343153761,-14.483999824567714,-4.097338305721062
426,17.080057943000156,bno085,3.0,-7.80859375,-0.234375,-0.978515625,0.052734375,0.041015625,-0.54595947265625,-0.38812255859375,0.24884033203125,0.69952392578125,-85.14193343153761,-14.483999824567714,-4.097338305721062
427,17.120058137000342,bno085,2.73046875,-8.84375,0.72265625,-0.978515625,0.052734375,0.041015625,-0.56646728515625,-0.37725830078125,0.24041748046875,0.69207763671875,-86.93048160899006,-13.243488044869075,-5.713264961795399
428,17.16005696000002,bno085,2.578125,-8.84375,0.609375,-0.443359375,0.20703125,0.044921875,-0.57904052734375,-0.3719482421875,0.23150634765625,0.68756103515625,-88.19536987721241,-12.888874475437843,-6.88072415189739
429,17.200058376000015,bno085,2.73046875,-9.19140625,0.8359375,0.267578125,-0.01171875,0.154296875,-0.57952880859375,-0.3651123046875,0.23046875,0.691162109375,-87.68624176585404,-12.564153161197778,-7.662081373246316
430,17.240057792000243,bno085,2.69140625,-9.19140625,0.8359375,-0.044921875,-0.056640625,0.0,-0.57952880859375,-0.3651123046875,0.23046875,0.691162109375,-87.68624176585404,-12.564153161197778,-7.662081373246316
431,17.280058264000218,bno085,2.73046875,-9.83984375,1.296875,-0.166015625,-0.048828125,0.095703125,-0.58111572265625,-0.361083984375,0.22772216796875,0.69287109375,-87.57260656269457,-12.467554690600963,-8.287309061564725
432,17.320058661000076,bno085,2.65234375,-9.2265625,0.8359375,-0.154296875,0.005859375,0.21875,-0.58489990234375,-0.35760498046875,0.22637939453125,0.69195556640625,-87.81053398587486,-12.145111835726674,-8.709355190842249
433,17.360055855000155,bno085,2.6171875,-9.30859375,0.609375,-0.154296875,0.005859375,0.21875,-0.59075927734375,-0.3531494140625,0.224853515625,0.68975830078125,-88.26363135209202,-11.652900359202725,-9.221410140906498
434,17.40005645600013,bno085,2.578125,-9.375,0.72265625,-0.12890625,0.01953125,0.13671875,-0.59503173828125,-0.34844970703125,0.22412109375,0.68865966796875,-88.48433434026916,-11.177772319857535,-9.707590773047844
435,17.440057187000093,bno085,2.6171875,-9.69140625,0.76171875,-0.083984375,-0.0546875,0.19921875,-0.59906005859375,-0.34417724609375,0.2244873046875,0.68719482421875,-88.71136074502988,-10.650490923141042,-10.058320160705893
436,17.480057918000057,bno085,2.234375,-8.92578125,0.68359375,0.080078125,0.017578125,0.0703125,-0.59906005859375,-0.34417724609375,0.2244873046875,0.68719482421875,-88.71136074502988,-10.650490923141042,-10.058320160705893
437,17.520056278000084,bno085,2.5,-9.4921875,0.72265625,0.080078125,0.017578125,0.0703125,-0.6002197265625,-0.3411865234375,0.223876953125,0.68792724609375,-88.64205803635116,-10.458664036643652,-10.392611418573274
438,17.560058563999974,bno085,2.578125,-9.6484375,0.76171875,-0.005859375,0.072265625,0.16015625,-0.60260009765625,-0.33538818359375,0.22308349609375,0.68890380859375,-88.53211352124188,-10.039418691496063,-11.006089255270329
439,17.600058073000127,bno085,2.00390625,-9.07421875,0.8359375,0.001953125,-0.017578125,0.099609375,-0.6048583984375,-0.33062744140625,0.22247314453125,0.689453125,-88.49191488476728,-9.673337752590673,-11.499129598524332
440,17.640057693000017,bno085,2.15625,-9.37890625,0.68359375,0.037109375,0.02734375,0.0078125,-0.6048583984375,-0.33062744140625,0.22247314453125,0.689453125,-88.49191488476728,-9.673337752590673,-11.499129598524332
441,17.680058035000002,bno085,2.15625,-9.57421875,0.72265625,0.056640625,0.19140625,-0.0234375,-0.60565185546875,-0.326904296875,0.21978759765625,0.69140625,-88.32976781355474,-9.631257896840795,-12.080027317788117
442,17.720058246999997,bno085,2.1953125,-9.23046875,0.68359375,0.033203125,0.130859375,0.021484375,-0.60662841796875,-0.32232666015625,0.2144775390625,0.6943359375,-88.13701405374083,-9.744703016358411,-12.963495570897969
443,17.76005708899993,bno085,2.38671875,-9.37890625,0.76171875,0.033203125,0.130859375,0.021484375,-0.60748291015625,-0.31854248046875,0.210693359375,0.696533203125,-87.98753675480447,-9.782619970023514,-13.638858591427395
444,17.800058486000125,bno085,2.234375,-9.265625,0.76171875,-0.142578125,0.021484375,-0.048828125,-0.61029052734375,-0.31756591796875,0.2059326171875,0.6959228515625,-88.32204010079153,-9.962620649444368,-14.10811559607383
445,17.840061458000037,bno085,2.234375,-9.41796875,0.68359375,-0.017578125,0.001953125,-0.025390625,-0.61029052734375,-0.31756591796875,0.2059326171875,0.6959228515625,-88.32204010079153,-9.962620649444368,-14.10811559607383
446,17.880059040000106,bno085,2.30859375,-9.609375,0.76171875,-0.09375,0.03125,0.009765625,-0.611572265625,-0.316162109375,0.2027587890625,0.69635009765625,-88.40761401648406,-10.070093591729702,-14.498000821634198
447,17.92005741899993,bno085,2.1171875,-9.2265625,0.68359375,-0.09375,0.03125,0.009765625,-0.613525390625,-0.314453125,0.2001953125,0.69610595703125,-88.56776132637539,-10.069134113277281,-14.858474473492375
448,17.960058964999916,bno085,2.1953125,-9.3359375,0.609375,0.05078125,0.009765625,-0.01953125,-0.61419677734375,-0.3125,0.19732666015625,0.697265625,-88.5283750556429,-10.15255899640069,-15.278996634695726
449,18.000056546999986,bno085,2.1953125,-9.1484375,0.609375,0.0859375,0.005859375,0.013671875,-0.61376953125,-0.31011962890625,0.1956787109375,0.69915771484375,-88.30019099461316,-10.164685285128964,-15.650032906829509
450,18.040058278000288,bno085,2.15625,-9.0703125,0.64453125,0.056640625,-0.0078125,-0.095703125,-0.61376953125,-0.31011962890625,0.1956787109375,0.69915771484375,-88.30019099461316,-10.164685285128964,-15.650032906829509
451,18.080057583000325,bno085,2.30859375,-9.53515625,0.953125,0.083984375,-0.033203125,-0.07421875,-0.6131591796875,-0.3089599609375,0.192138671875,0.701171875,-88.13422523218317,-10.421029060844496,-16.06540526768053
452,18.120059110000057,bno085,2.5,-9.53515625,0.80078125,0.083984375,-0.033203125,-0.07421875,-0.60919189453125,-0.3116455078125,0.18975830078125,0.7041015625,-87.75658644383985,-11.006740075325297,-16.05306263758374
453,18.160056433000136,bno085,2.4609375,-9.49609375,0.80078125,0.02734375,-0.037109375,0.00390625,-0.609375,-0.3106689453125,0.18804931640625,0.704833984375,-87.7150127612296,-11.076763802860478,-16.288537645243977
454,18.200058293999973,bno085,2.34765625,-9.3359375,0.80078125,0.013671875,-0.03515625,-0.01953125,-0.6099853515625,-0.30950927734375,0.185791015625,0.70538330078125,-87.72227228002048,-11.156893477192042,-16.583238522374042
455,18.240057264999905,bno085,2.38671875,-9.453125,0.80078125,-0.025390625,-0.017578125,-0.0234375,-0.6099853515625,-0.30950927734375,0.185791015625,0.70538330078125,-87.72227228002048,-11.156893477192042,-16.583238522374042
456,18.28005829199992,bno085,2.42578125,-9.33984375,0.80078125,-0.005859375,-0.013671875,0.0,-0.61077880859375,-0.30859375,0.18353271484375,0.70574951171875,-87.7738401915221,-11.244779449952071,-16.850509450864376
457,18.320058115999927,bno085,2.38671875,-9.30859375,0.72265625,-0.005859375,-0.013671875,0.0,-0.61126708984375,-0.30767822265625,0.181884765625,0.70611572265625,-87.78085227418613,-11.296086721663132,-17.071495386966813
458,18.360056958000314,bno085,2.38671875,-9.375,0.80078125,-0.0078125,-0.021484375,-0.04296875,-0.611572265625,-0.30712890625,0.17999267578125,0.70660400390625,-87.78785941933697,-11.402303811223621,-17.278855834340842
459,18.40005655899995,bno085,2.42578125,-9.41796875,0.80078125,0.013671875,0.0078125,0.0,-0.61236572265625,-0.30511474609375,0.17694091796875,0.70751953125,-87.76367515957466,-11.482587662255558,-17.718680252374117
460,18.44005882700003,bno085,2.38671875,-9.26953125,0.76171875,-0.041015625,-0.001953125,-0.03515625,-0.61236572265625,-0.30511474609375,0.17694091796875,0.70751953125,-87.76367515957466,-11.482587662255558,-17.718680252374117
461,18.48005698299994,bno085,2.38671875,-9.30859375,0.72265625,0.033203125,-0.001953125,-0.041015625,-0.61358642578125,-0.3040771484375,0.173828125,0.70770263671875,-87.87022161842613,-11.61038919988396,-18.06331232935645
462,18.52005804800001,bno085,2.4609375,-9.3359375,0.76171875,0.033203125,-0.001953125,-0.041015625,-0.613037109375,-0.30328369140625,0.17218017578125,0.70892333984375,-87.73699409303023,-11.723491127974986,-18.284054906541535
463,18.560056389000238,bno085,2.5,-9.30859375,0.80078125,0.005859375,-0.01171875,-0.04296875,-0.61322021484375,-0.30242919921875,0.1695556640625,0.70977783203125,-87.70621206516532,-11.875626530099707,-18.58293645348016
464,18.60005839800033,bno085,2.4296875,-9.45703125,0.62109375,-0.154296875,0.009765625,-0.076171875,-0.615234375,-0.30279541015625,0.165283203125,0.7088623046875,-88.02624336977253,-12.150694813050846,-18.878916892067856
465,18.64005844400026,bno085,2.50390625,-9.6484375,0.58203125,0.013671875,-0.017578125,-0.03515625,-0.6156005859375,-0.30224609375,0.16265869140625,0.7093505859375,-88.04311186050808,-12.312883860941051,-19.14600859539662
466,18.68005761900031,bno085,2.54296875,-9.53125,0.54296875,0.01171875,-0.005859375,0.00390625,-0.6156005859375,-0.30224609375,0.16265869140625,0.7093505859375,-88.04311186050808,-12.312883860941051,-19.14600859539662
467,18.720058276000145,bno085,2.50390625,-9.4921875,0.54296875,0.01171875,-0.005859375,0.00390625,-0.6160888671875,-0.301513671875,0.1611328125,0.70965576171875,-88.06491027498635,-12.367700264022554,-19.335703353177024
468,18.76005780300011,bno085,2.50390625,-9.53125,0.58203125,-0.01171875,-0.00390625,-0.001953125,-0.61669921875,-0.3001708984375,0.15972900390625,0.7099609375,-88.06200384594513,-12.363784888918344,-19.573926562398707
469,18.800058052000168,bno085,2.46875,-9.453125,0.58203125,0.005859375,0.01171875,0.015625,-0.61749267578125,-0.29827880859375,0.157958984375,0.71051025390625,-88.04944355662192,-12.346273523557185,-19.890997134014032
470,18.840058172000226,bno085,2.390625,-9.33984375,0.46484375,0.1875,-0.056640625,0.046875,-0.615478515625,-0.29638671875,0.158447265625,0.712890625,-87.62688321081164,-12.278368306419745,-20.059133720037806
471,18.88005782800019,bno085,2.46875,-9.609375,0.6953125,0.310546875,-0.1171875,0.033203125,-0.615478515625,-0.29638671875,0.158447265625,0.712890625,-87.62688321081164,-12.278368306419745,-20.059133720037806
472,18.92006263300027,bno085,2.54296875,-9.57421875,0.88671875,0.03125,-0.06640625,-0.013671875,-0.608642578125,-0.29742431640625,0.1619873046875,0.717529296875,-86.70556678648248,-12.39352040876177,-19.75582669747069
473,18.960057253000286,bno085,2.46875,-9.3359375,0.84765625,0.03125,-0.06640625,-0.013671875,-0.60723876953125,-0.2972412109375,0.1619873046875,0.71875,-86.49046333156583,-12.449282703984752,-19.792868770979847
474,19.000060317000134,bno085,2.50390625,-9.53125,0.8125,-0.0625,-0.009765625,-0.078125,-0.608154296875,-0.29736328125,0.1590576171875,0.7186279296875,-86.63166163091691,-12.65291589720629,-20.014985010298936
475,19.040058288000182,bno085,2.50390625,-9.57421875,0.84765625,-0.05078125,0.03515625,0.0,-0.6094970703125,-0.2957763671875,0.15625,0.71875,-86.71879407098231,-12.709269968068194,-20.383379852758388
476,19.080060926999977,bno085,2.46875,-9.33984375,0.7734375,0.017578125,0.009765625,-0.021484375,-0.6094970703125,-0.2957763671875,0.15625,0.71875,-86.71879407098231,-12.709269968068194,-20.383379852758388
477,19.12005771300028,bno085,2.50390625,-9.609375,0.8125,0.134765625,-0.001953125,0.052734375,-0.60968017578125,-0.29473876953125,0.15460205078125,0.71942138671875,-86.67596111305781,-12.76522846285269,-20.617113405768354
478,19.160057407000295,bno085,2.54296875,-9.4921875,0.8125,0.134765625,-0.001953125,0.052734375,-0.6080322265625,-0.29266357421875,0.15509033203125,0.72149658203125,-86.29817061563982,-12.661613873333666,-20.796251184282674
479,19.200059619000058,bno085,2.4296875,-9.296875,0.8125,0.005859375,0.009765625,-0.01171875,-0.6083984375,-0.29144287109375,0.1531982421875,0.72210693359375,-86.27007471131678,-12.714615140015905,-21.06550940380466
480,19.24005775700016,bno085,2.50390625,-9.5703125,0.92578125,-0.005859375,0.017578125,0.01171875,-0.6092529296875,-0.29022216796875,0.15106201171875,0.72235107421875,-86.31301170786296,-12.76425032646245,-21.348224456993947
481,19.28005991400005,bno085,2.46875,-9.609375,1.00390625,0.119140625,0.08203125,0.095703125,-0.6092529296875,-0.29022216796875,0.15106201171875,0.72235107421875,-86.31301170786296,-12.76425032646245,-21.348224456993947
482,19.320057903999896,bno085,2.50390625,-9.9921875,1.1953125,1.234375,1.376953125,0.390625,-0.60760498046875,-0.28472900390625,0.152099609375,0.7257080078125,-85.7153560882363,-12.376295982155039,-21.79805733759328
483,19.360057504999986,bno085,2.58203125,-9.71875,1.04296875,1.234375,1.376953125,0.390625,-0.59527587890625,-0.2562255859375,0.1534423828125,0.74591064453125,-82.21002869001745,-10.75505930432188,-24.419981103046144
484,19.400058273000013,bno085,1.890625,-10.1796875,3.109375,1.982421875,1.138671875,1.1875,-0.5709228515625,-0.210693359375,0.16680908203125,0.77581787109375,-76.45261489169575,-7.1630320804691845,-27.264937988041837
485,19.440058577999935,bno085,1.96875,-10.0703125,2.45703125,2.466796875,1.578125,1.271484375,-0.5369873046875,-0.14874267578125,0.17840576171875,0.81097412109375,-69.35026785353114,-2.2700148687052706,-30.953973764107918
486,19.480058011999972,bno085,1.01171875,-9.53515625,3.9921875,2.11328125,1.90625,1.10546875,-0.5369873046875,-0.14874267578125,0.17840576171875,0.81097412109375,-69.35026785353114,-2.2700148687052706,-30.953973764107918
487,19.520059799000137,bno085,-0.25390625,-8.46484375,4.7578125,1.8671875,2.15625,0.73828125,-0.504638671875,-0.09033203125,0.18133544921875,0.8392333984375,-63.35234723490145,2.2738896819171788,-34.49840144541586
488,19.5600567890001,bno085,-1.05859375,-7.62109375,5.1015625,1.8671875,2.15625,0.73828125,-0.47662353515625,-0.02496337890625,0.174072265625,0.861328125,-58.45927571703478,7.406663922665214,-38.933287074888746
489,19.600057649000064,bno085,-1.6328125,-8.421875,5.984375,1.55078125,2.22265625,0.697265625,-0.45068359375,0.03985595703125,0.16009521484375,0.8773193359375,-54.57749014183153,12.577553085768102,-43.609101782254506
490,19.64005823200023,bno085,-1.59375,-7.3046875,5.6015625,1.029296875,3.001953125,0.404296875,-0.43011474609375,0.11383056640625,0.13714599609375,0.885009765625,-52.24126323102935,18.65930650190637,-49.548814495166035
491,19.68005881399995,bno085,-3.203125,-7.1953125,6.2109375,1.30859375,2.20703125,0.9609375,-0.43011474609375,0.11383056640625,0.13714599609375,0.885009765625,-52.24126323102935,18.65930650190637,-49.548814495166035
492,19.720060379000188,bno085,-3.69921875,-7.84765625,7.3984375,1.3046875,4.041015625,1.61328125,-0.40216064453125,0.17822265625,0.12567138671875,0.88922119140625,-49.48436269692766,24.6228244583687,-53.49077203784085
493,19.76005692400031,bno085,-4.3515625,-5.01171875,4.375,1.3046875,4.041015625,1.61328125,-0.3724365234375,0.2802734375,0.11083984375,0.87774658203125,-48.40417687114248,34.79251997727551,-59.94998853446167
494,19.800059859000157,bno085,-6.2265625,-5.28125,4.87109375,1.20703125,3.357421875,1.40625,-0.34722900390625,0.3729248046875,0.09686279296875,0.85498046875,-49.6925103424859,44.34498552539116,-66.97132971133027
495,19.84006021899995,bno085,-7.1875,-4.28515625,4.44921875,0.041015625,3.982421875,1.30078125,-0.3338623046875,0.46856689453125,0.0869140625,0.81329345703125,-56.51084759911136,54.33391162461618,-77.41526264692601
496,19.880058228000053,bno085,-7.41796875,-4.1328125,2.15234375,0.20703125,4.15234375,1.443359375,-0.3338623046875,0.46856689453125,0.0869140625,0.81329345703125,-56.51084759911136,54.33391162461618,-77.41526264692601
497,19.92006369899991,bno085,-7.109375,-3.05859375,-0.4921875,0.787109375,2.931640625,1.109375,-0.3233642578125,0.5618896484375,0.0765380859375,0.757568359375,-71.31831951042697,63.05740816702758,-95.0477263159046
498,19.96005820800019,bno085,-7.76171875,-3.44140625,-0.14453125,0.787109375,2.931640625,1.109375,-0.29522705078125,0.6298828125,0.0626220703125,0.7156982421875,-86.83776070418362,68.24217672931043,-114.65636575669774
