sample,time_s,sensor,accel_x_mps2,accel_y_mps2,accel_z_mps2,gyro_x_radps,gyro_y_radps,gyro_z_radps,quat_i,quat_j,quat_k,quat_real,roll_deg,pitch_deg,yaw_deg
0,0.04005623700004435,bno085,0.01171875,0.3125,9.91796875,-0.001953125,0.0,0.0,0.01385498046875,0.00677490234375,0.45074462890625,0.89251708984375,3.2642294282307403e-06,-6.675496218093462e-06,1.0033620665939392e-07
1,0.0800542710001082,bno085,0.01171875,0.3125,9.91796875,0.0,0.0,0.001953125,0.01416015625,0.00689697265625,0.46026611328125,0.88763427734375,0.03803714322633406,0.015205615741013392,1.2257298395771001
2,0.12005450900005599,bno085,0.01171875,0.3125,9.91796875,0.0,0.0,-0.001953125,0.01416015625,0.00689697265625,0.46026611328125,0.88763427734375,0.03803714322633406,0.015205615741013392,1.2257298395771001
3,0.16005433899999844,bno085,0.01171875,0.3125,9.91796875,0.00390625,0.0,0.0,0.01422119140625,0.00689697265625,0.4586181640625,0.88848876953125,0.04412237584566278,0.008796901356200771,1.013322769008581
4,0.2000552620002054,bno085,0.05078125,0.3125,9.875,0.0,0.001953125,-0.001953125,0.01422119140625,0.0068359375,0.4556884765625,0.8900146484375,0.040762792564773526,-0.003068972782360457,0.6365402230899481
5,0.2400547770000685,bno085,0.01171875,0.3125,9.91796875,0.0,0.001953125,-0.001953125,0.01422119140625,0.0068359375,0.45513916015625,0.8902587890625,0.04072680956233487,-0.004198782043426573,0.5647158447176284
6,0.2800549960002172,bno085,0.01171875,0.3125,9.91796875,-0.001953125,0.001953125,0.001953125,0.01422119140625,0.0068359375,0.45526123046875,0.89019775390625,0.04073228057271216,-0.003959709735492332,0.5804670245462009
7,0.32000849300015943,bno085,0.01171875,0.3125,9.91796875,-0.00390625,-0.001953125,0.0,0.014404296875,0.00640869140625,0.4521484375,0.89178466796875,0.03721069989978876,-0.06313538971841362,0.18107084068778637
8,0.36005360100011785,bno085,0.01171875,0.3125,9.91796875,0.001953125,0.0,0.001953125,0.014404296875,0.00640869140625,0.4521484375,0.89178466796875,0.03721069989978876,-0.06313538971841362,0.18107084068778637
9,0.4000553570001557,bno085,0.01171875,0.3125,9.91796875,-0.005859375,0.0,0.0,0.014404296875,0.00640869140625,0.4521484375,0.89178466796875,0.03721069989978876,-0.06313538971841362,0.18107084068778637
10,0.44005576100016697,bno085,0.05078125,0.3125,9.9140625,-0.005859375,0.0,0.0,0.014404296875,0.00640869140625,0.4521484375,0.89178466796875,0.03721069989978876,-0.06313538971841362,0.18107084068778637
11,0.48005425800010926,bno085,0.01171875,0.3125,9.87890625,0.0,0.00390625,0.0,0.01434326171875,0.00640869140625,0.4521484375,0.89178466796875,0.03097157034567043,-0.059975349495520566,0.18094683984407872
12,0.5200536800000464,bno085,0.01171875,0.3125,9.91796875,0.001953125,0.0,0.0,0.01434326171875,0.00640869140625,0.4521484375,0.89178466796875,0.03097157034567043,-0.059975349495520566,0.18094683984407872
13,0.560054270000137,bno085,0.01171875,0.3125,9.91796875,0.00390625,0.0,0.0,0.014404296875,0.00640869140625,0.4521484375,0.89178466796875,0.03721069989978876,-0.06313538971841362,0.18107084068778637
14,0.6000537290001375,bno085,0.05078125,0.3125,9.9140625,-0.005859375,0.001953125,0.0,0.014404296875,0.00640869140625,0.4521484375,0.89178466796875,0.03721069989978876,-0.06313538971841362,0.18107084068778637
15,0.6400533560001804,bno085,0.01171875,0.3125,9.91796875,-0.005859375,0.001953125,0.0,0.014404296875,0.00640869140625,0.4521484375,0.89178466796875,0.03721069989978876,-0.06313538971841362,0.18107084068778637
16,0.6800534080000489,bno085,0.01171875,0.3125,9.91796875,0.0,0.0,0.001953125,0.014404296875,0.00640869140625,0.45220947265625,0.89178466796875,0.03721996795560927,-0.06296442683355315,0.189858266582409
17,0.7200532200001817,bno085,0.01171875,0.3125,9.91796875,0.001953125,0.0,0.0,0.014404296875,0.00640869140625,0.45220947265625,0.89178466796875,0.03721996795560927,-0.06296442683355315,0.189858266582409
18,0.760053217000177,bno085,0.01171875,0.3125,9.91796875,0.001953125,0.001953125,0.0,0.014404296875,0.00640869140625,0.45220947265625,0.89178466796875,0.03721996795560927,-0.06296442683355315,0.189858266582409
19,0.8000533990000349,bno085,0.01171875,0.3125,9.91796875,0.0,0.0,0.0,0.014404296875,0.00640869140625,0.45220947265625,0.89178466796875,0.03721996795560927,-0.06296442683355315,0.189858266582409
20,0.8400533779999932,bno085,0.01171875,0.3125,9.91796875,0.0,0.0,0.0,0.014404296875,0.00640869140625,0.45220947265625,0.89178466796875,0.03721996795560927,-0.06296442683355315,0.189858266582409
21,0.880053190000126,bno085,0.01171875,0.3125,9.91796875,0.001953125,0.001953125,0.001953125,0.014404296875,0.00640869140625,0.45220947265625,0.89178466796875,0.03721996795560927,-0.06296442683355315,0.189858266582409
22,0.9200533350001479,bno085,0.01171875,0.3125,9.91796875,0.001953125,0.0,0.0,0.014404296875,0.00640869140625,0.45220947265625,0.89178466796875,0.03721996795560927,-0.06296442683355315,0.189858266582409
23,0.9600533140001062,bno085,0.01171875,0.3125,9.91796875,-0.005859375,-0.001953125,-0.001953125,0.014404296875,0.00640869140625,0.45220947265625,0.89178466796875,0.03721996795560927,-0.06296442683355315,0.189858266582409
24,1.0000535900001069,bno085,0.01171875,0.3125,9.91796875,0.0,0.0,0.0,0.014404296875,0.00640869140625,0.45220947265625,0.89178466796875,0.03721996795560927,-0.06296442683355315,0.189858266582409
25,1.0400535310000123,bno085,0.01171875,0.3125,9.91796875,0.0,0.0,0.0,0.01434326171875,0.00640869140625,0.45220947265625,0.89178466796875,0.030980838586014792,-0.05980396001980966,0.1897342611608155
26,1.0800536770000235,bno085,0.01171875,0.3125,9.91796875,0.001953125,0.0,0.0,0.01434326171875,0.0064697265625,0.4522705078125,0.8917236328125,0.03413180843173381,-0.05349833144189399,0.1965950410766171
27,1.1200537490001352,bno085,0.01171875,0.3125,9.91796875,0.00390625,0.0,0.0,0.01434326171875,0.0064697265625,0.4522705078125,0.8917236328125,0.03413180843173381,-0.05349833144189399,0.1965950410766171
28,1.1600534310000512,bno085,0.01171875,0.3125,9.91796875,0.001953125,0.0,0.0,0.01434326171875,0.0064697265625,0.4522705078125,0.8917236328125,0.03413180843173381,-0.05349833144189399,0.1965950410766171
29,1.2000536880000254,bno085,0.01171875,0.3125,9.91796875,0.0,0.001953125,0.001953125,0.01434326171875,0.0064697265625,0.4522705078125,0.8917236328125,0.03413180843173381,-0.05349833144189399,0.1965950410766171
30,1.2400539260002006,bno085,0.01171875,0.3125,9.91796875,0.0,0.001953125,0.001953125,0.01434326171875,0.0064697265625,0.4522705078125,0.8917236328125,0.03413180843173381,-0.05349833144189399,0.1965950410766171
31,1.280053442000053,bno085,0.01171875,0.3125,9.91796875,0.0,0.0,0.0,0.01434326171875,0.00653076171875,0.4522705078125,0.8917236328125,0.03729599963219159,-0.04726037574965037,0.1965352778465399
32,1.3200531990000854,bno085,0.01171875,0.3125,9.91796875,0.0,0.0,0.0,0.01434326171875,0.00653076171875,0.4522705078125,0.8917236328125,0.03729599963219159,-0.04726037574965037,0.1965352778465399
33,1.3600533260000702,bno085,0.01171875,0.3125,9.91796875,0.0,0.0,0.0,0.01434326171875,0.00653076171875,0.4522705078125,0.8917236328125,0.03729599963219159,-0.04726037574965037,0.1965352778465399
34,1.4000548050000816,bno085,0.01171875,0.3125,9.91796875,0.0,0.0,0.0,0.01434326171875,0.00653076171875,0.4522705078125,0.8917236328125,0.03729599963219159,-0.04726037574965037,0.1965352778465399
35,1.440054506000024,bno085,0.01171875,0.3125,9.91796875,0.0,0.0,0.0,0.01434326171875,0.006591796875,0.4522705078125,0.8917236328125,0.04046019081820259,-0.04102239963158946,0.19647620319207976
36,1.480057540000189,bno085,0.05078125,0.3125,9.9140625,0.0,0.0,0.0,0.01434326171875,0.006591796875,0.4522705078125,0.8917236328125,0.04046019081820259,-0.04102239963158946,0.19647620319207976
37,1.520055186000036,bno085,0.01171875,0.3125,9.91796875,0.0,0.0,0.0,0.01434326171875,0.006591796875,0.4522705078125,0.8917236328125,0.04046019081820259,-0.04102239963158946,0.19647620319207976
38,1.5600537390000682,bno085,0.01171875,0.3125,9.91796875,-0.001953125,0.0,0.0,0.01434326171875,0.006591796875,0.4522705078125,0.8917236328125,0.04046019081820259,-0.04102239963158946,0.19647620319207976
39,1.6000534400000106,bno085,0.01171875,0.3125,9.91796875,-0.001953125,0.0,0.0,0.0142822265625,0.006591796875,0.4522705078125,0.8917236328125,0.03422147487666797,-0.03786153095259691,0.19635143006008784
40,1.6400552340001013,bno085,0.01171875,0.3125,9.91796875,-0.001953125,0.0,0.0,0.01422119140625,0.006591796875,0.4522705078125,0.8917236328125,0.027982775790545113,-0.03470066238358754,0.19622665675916395
41,1.6800550090001707,bno085,0.01171875,0.3125,9.91796875,0.0,0.0,0.001953125,0.01422119140625,0.006591796875,0.4522705078125,0.8917236328125,0.027982775790545113,-0.03470066238358754,0.19622665675916395
42,1.7200069140001233,bno085,0.01171875,0.3125,9.91796875,0.001953125,-0.001953125,-0.001953125,0.01416015625,0.00653076171875,0.45220947265625,0.89178466796875,0.01859102101705811,-0.03784586591591113,0.18924049840400362
43,1.7600532630001453,bno085,0.01171875,0.3125,9.91796875,0.001953125,0.001953125,0.0,0.01416015625,0.00653076171875,0.45220947265625,0.89178466796875,0.01859102101705811,-0.03784586591591113,0.18924049840400362
44,1.8000537420000455,bno085,0.01171875,0.3125,9.91796875,-0.001953125,-0.001953125,0.0,0.01416015625,0.006591796875,0.45220947265625,0.89178466796875,0.021754755005058284,-0.0316074878087706,0.1891806583934776
45,1.8400531290001254,bno085,0.01171875,0.3125,9.91796875,-0.001953125,-0.001953125,0.0,0.01416015625,0.006591796875,0.45220947265625,0.89178466796875,0.021754755005058284,-0.0316074878087706,0.1891806583934776
46,1.8800534420001895,bno085,0.01171875,0.3125,9.91796875,-0.001953125,0.001953125,-0.001953125,0.01416015625,0.006591796875,0.45220947265625,0.89178466796875,0.021754755005058284,-0.0316074878087706,0.1891806583934776
47,1.9200530510001954,bno085,0.01171875,0.3125,9.91796875,0.001953125,-0.001953125,0.0,0.01416015625,0.006591796875,0.45220947265625,0.89178466796875,0.021754755005058284,-0.0316074878087706,0.1891806583934776
48,1.9600533640000322,bno085,0.01171875,0.3125,9.91796875,-0.001953125,0.0,-0.001953125,0.01416015625,0.006591796875,0.45220947265625,0.89178466796875,0.021754755005058284,-0.0316074878087706,0.1891806583934776
49,2.0000534550001703,bno085,0.01171875,0.3125,9.91796875,-0.001953125,-0.001953125,0.0,0.01416015625,0.00665283203125,0.451171875,0.892333984375,0.02492680651820837,-0.027354088552267255,0.056595322767145864
50,2.040054009000187,bno085,0.01171875,0.3125,9.91796875,-0.001953125,-0.001953125,0.0,0.01416015625,0.006591796875,0.45111083984375,0.892333984375,0.0217601425049392,-0.03376871096420118,0.047873730514396584
51,2.0800538960002086,bno085,0.05078125,0.3125,9.9140625,0.001953125,0.001953125,0.001953125,0.01409912109375,0.006591796875,0.451171875,0.892333984375,0.015527393832695139,-0.03044313942992739,0.05652991477580235
52,2.1200542090000454,bno085,0.01171875,0.3125,9.91796875,0.0,0.001953125,-0.001953125,0.0140380859375,0.006591796875,0.45111083984375,0.892333984375,0.009274293681598354,-0.027463188275142075,0.047624487688886864
53,2.160054446999993,bno085,0.01171875,0.3125,9.91796875,0.001953125,0.0,0.0,0.0140380859375,0.006591796875,0.45111083984375,0.892333984375,0.009274293681598354,-0.027463188275142075,0.047624487688886864
54,2.200056112000084,bno085,0.01171875,0.3125,9.91796875,0.0,-0.001953125,0.0,0.0140380859375,0.006591796875,0.45111083984375,0.892333984375,0.009274293681598354,-0.027463188275142075,0.047624487688886864
55,2.2400544440001795,bno085,0.01171875,0.3125,9.91796875,0.0,-0.001953125,0.0,0.01397705078125,0.00653076171875,0.45037841796875,0.8927001953125,-0.00011884690387263763,-0.03200901028156978,-0.046566281348598276
56,2.2800543680000374,bno085,0.01171875,0.3125,9.91796875,0.001953125,-0.001953125,0.001953125,0.0140380859375,0.006591796875,0.45037841796875,0.8927001953125,0.009277516020625712,-0.02891189711969128,-0.04650245968293283
57,2.320008422000001,bno085,0.01171875,0.3125,9.91796875,0.0,-0.001953125,0.0,0.0140380859375,0.00653076171875,0.45037841796875,0.8927001953125,0.006126602889016435,-0.03515665947380258,-0.04644200785221131
58,2.360055586000044,bno085,0.01171875,0.3125,9.91796875,0.0,-0.001953125,0.001953125,0.0140380859375,0.00653076171875,0.45037841796875,0.8927001953125,0.006126602889016435,-0.03515665947380258,-0.04644200785221131
59,2.4000572880001982,bno085,0.01171875,0.3125,9.91796875,0.005859375,0.00390625,0.00390625,0.0140380859375,0.0064697265625,0.449951171875,0.8929443359375,0.002995684153610183,-0.04219668085166456,-0.10032458091510649
60,2.44005573000004,bno085,0.05078125,0.3125,9.9140625,0.005859375,0.00390625,0.00390625,0.01409912109375,0.00653076171875,0.44989013671875,0.8929443359375,0.012381449197488225,-0.03926736496979535,-0.10903468654675927
61,2.480055803000141,bno085,0.01171875,0.3125,9.91796875,0.001953125,0.0,0.0,0.01409912109375,0.00653076171875,0.44989013671875,0.8929443359375,0.012381449197488225,-0.03926736496979535,-0.10903468654675927
62,2.5200546160001522,bno085,0.01171875,0.3125,9.91796875,0.0,-0.001953125,0.0,0.01409912109375,0.0064697265625,0.44989013671875,0.8929443359375,0.00923393904440674,-0.04551382176474871,-0.10897377424582698
63,2.5600549279999996,bno085,0.01171875,0.3125,9.91796875,0.001953125,0.0,0.0,0.01409912109375,0.0064697265625,0.44989013671875,0.8929443359375,0.00923393904440674,-0.04551382176474871,-0.10897377424582698
64,2.6000544820001323,bno085,0.01171875,0.3125,9.91796875,0.0,0.0,0.0,0.01416015625,0.0064697265625,0.44989013671875,0.8929443359375,0.01548111850886621,-0.04865806594915937,-0.10884981869872674
65,2.640054851000059,bno085,0.01171875,0.3125,9.95703125,0.0,0.0,0.0,0.01422119140625,0.0064697265625,0.44970703125,0.89300537109375,0.021723781164460984,-0.05221322601126715,-0.1331729341040158
66,2.6800545520000014,bno085,0.01171875,0.3125,9.91796875,0.0,0.0,0.0,0.01422119140625,0.0064697265625,0.44970703125,0.89306640625,0.021745874673529533,-0.0521094164111694,-0.1313024553003984
67,2.7200543470000866,bno085,0.01171875,0.3125,9.91796875,0.0,0.0,0.0,0.01422119140625,0.0064697265625,0.44970703125,0.89306640625,0.021745874673529533,-0.0521094164111694,-0.1313024553003984
68,2.7600549000001138,bno085,0.01171875,0.3125,9.91796875,0.0,0.0,0.0,0.01422119140625,0.0064697265625,0.44970703125,0.89306640625,0.021745874673529533,-0.0521094164111694,-0.1313024553003984
69,2.800054842999998,bno085,0.01171875,0.3125,9.91796875,0.0,0.0,0.0,0.01422119140625,0.0064697265625,0.44970703125,0.89306640625,0.021745874673529533,-0.0521094164111694,-0.1313024553003984
70,2.84005300900003,bno085,0.01171875,0.3125,9.91796875,0.0,0.0,0.0,0.01422119140625,0.00653076171875,0.44952392578125,0.89312744140625,0.024886548943293393,-0.04627246144109721,-0.15580604776601753
71,2.8800542480000786,bno085,0.01171875,0.3125,9.91796875,0.0,0.0,0.0,0.01422119140625,0.00653076171875,0.44952392578125,0.89312744140625,0.024886548943293393,-0.04627246144109721,-0.15580604776601753
72,2.920054451000169,bno085,0.05078125,0.3125,9.9140625,0.0,0.0,0.0,0.01422119140625,0.00653076171875,0.44952392578125,0.89312744140625,0.024886548943293393,-0.04627246144109721,-0.15580604776601753
73,2.960054320000154,bno085,0.01171875,0.3125,9.91796875,0.0,0.0,0.0,0.01422119140625,0.00653076171875,0.44952392578125,0.89312744140625,0.024886548943293393,-0.04627246144109721,-0.15580604776601753
74,3.00005494800007,bno085,0.01171875,0.3125,9.91796875,0.0,0.0,0.0,0.01422119140625,0.00653076171875,0.44952392578125,0.89312744140625,0.024886548943293393,-0.04627246144109721,-0.15580604776601753
75,3.040054410000039,bno085,0.05078125,0.3125,9.9140625,0.0,0.0,0.0,0.01422119140625,0.00653076171875,0.44952392578125,0.89312744140625,0.024886548943293393,-0.04627246144109721,-0.15580604776601753
76,3.0800544460000765,bno085,0.01171875,0.3125,9.91796875,0.0,0.0,0.0,0.0142822265625,0.00653076171875,0.44952392578125,0.89312744140625,0.031135052132288944,-0.04941413760209337,-0.15568188655868273
77,3.120054593000077,bno085,0.01171875,0.3125,9.91796875,0.0,0.0,0.0,0.0142822265625,0.00653076171875,0.44952392578125,0.89312744140625,0.031135052132288944,-0.04941413760209337,-0.15568188655868273
78,3.1600543880001624,bno085,0.05078125,0.3125,9.9140625,0.0,0.0,0.0,0.0142822265625,0.00653076171875,0.44952392578125,0.89312744140625,0.031135052132288944,-0.04941413760209337,-0.15568188655868273
79,3.200055146000068,bno085,0.05078125,0.3125,9.9140625,0.0,0.0,0.0,0.0142822265625,0.00653076171875,0.44952392578125,0.89312744140625,0.031135052132288944,-0.04941413760209337,-0.15568188655868273
80,3.2400550150000527,bno085,0.01171875,0.3125,9.91796875,0.0,0.0,0.0,0.0142822265625,0.00653076171875,0.44952392578125,0.89312744140625,0.031135052132288944,-0.04941413760209337,-0.15568188655868273
81,3.2800541990000056,bno085,0.01171875,0.3125,9.91796875,0.0,0.0,0.0,0.0142822265625,0.0064697265625,0.44952392578125,0.89312744140625,0.027990071870120956,-0.055661899212320606,-0.1556217161759101
82,3.32005430900017,bno085,0.01171875,0.3125,9.91796875,0.0,0.0,0.0,0.01434326171875,0.0064697265625,0.44952392578125,0.89312744140625,0.03423858199546693,-0.058803583786872074,-0.15549780931276164
83,3.3600534740000967,bno085,0.05078125,0.3125,9.9140625,0.0,0.0,0.0,0.01434326171875,0.0064697265625,0.44952392578125,0.89312744140625,0.03423858199546693,-0.058803583786872074,-0.15549780931276164
84,3.400058473000172,bno085,0.05078125,0.3125,9.9140625,0.0,0.0,0.0,0.01434326171875,0.0064697265625,0.44952392578125,0.89312744140625,0.03423858199546693,-0.058803583786872074,-0.15549780931276164
85,3.440058712000109,bno085,0.01171875,0.3125,9.91796875,0.0,0.0,0.0,0.01434326171875,0.0064697265625,0.44952392578125,0.89312744140625,0.03423858199546693,-0.058803583786872074,-0.15549780931276164
86,3.4800590440001997,bno085,0.01171875,0.3125,9.91796875,0.0,0.0,0.0,0.01434326171875,0.00640869140625,0.44952392578125,0.89312744140625,0.031093591528058493,-0.06505133338171722,-0.15543720765269464
87,3.52005646900011,bno085,0.01171875,0.3125,9.91796875,0.0,0.0,0.0,0.01434326171875,0.00640869140625,0.44952392578125,0.89312744140625,0.031093591528058493,-0.06505133338171722,-0.15543720765269464
88,3.5600574120001056,bno085,0.05078125,0.3125,9.9140625,0.0,0.0,0.0,0.01434326171875,0.00640869140625,0.44952392578125,0.89312744140625,0.031093591528058493,-0.06505133338171722,-0.15543720765269464
89,3.600057633000006,bno085,0.01171875,0.3125,9.91796875,0.0,0.0,0.0,0.014404296875,0.00634765625,0.44952392578125,0.89312744140625,0.03419710817623761,-0.0744407642014098,-0.15525252218495103
90,3.640057373000218,bno085,0.05078125,0.3125,9.9140625,0.0,0.0,0.0,0.014404296875,0.00634765625,0.44952392578125,0.89312744140625,0.03419710817623761,-0.0744407642014098,-0.15525252218495103
91,3.6800572230001762,bno085,0.01171875,0.3125,9.91796875,0.0,0.0,0.0,0.014404296875,0.00634765625,0.44940185546875,0.8931884765625,0.03420472758149626,-0.07467825477443499,-0.17092237954493736
92,3.72005596300005,bno085,0.01171875,0.3125,9.91796875,0.0,0.0,0.0,0.014404296875,0.00628662109375,0.4493408203125,0.8931884765625,0.031053137855579536,-0.0810965798740932,-0.17963047882983857
93,3.7600556100001086,bno085,0.05078125,0.3125,9.9140625,0.0,0.0,0.0,0.014404296875,0.00628662109375,0.4493408203125,0.8931884765625,0.031053137855579536,-0.0810965798740932,-0.17963047882983857
94,3.8000551460002043,bno085,0.01171875,0.3125,9.91796875,0.0,0.0,0.0,0.01446533203125,0.00628662109375,0.4493408203125,0.8931884765625,0.03730207971182709,-0.08423701001113876,-0.17950735607395965
95,3.840057904000105,bno085,0.05078125,0.3125,9.9140625,0.0,0.0,0.0,0.01446533203125,0.00628662109375,0.4493408203125,0.8931884765625,0.03730207971182709,-0.08423701001113876,-0.17950735607395965
96,3.880056978000084,bno085,0.01171875,0.3125,9.91796875,0.0,0.0,0.0,0.01446533203125,0.0062255859375,0.4493408203125,0.8931884765625,0.034158348396941304,-0.090485142981083,-0.17944520340473477
97,3.9200569590000214,bno085,0.05078125,0.3125,9.9140625,0.0,0.0,0.0,0.01446533203125,0.0062255859375,0.4493408203125,0.8931884765625,0.034158348396941304,-0.090485142981083,-0.17944520340473477
98,3.96005545800017,bno085,0.01171875,0.3125,9.91796875,0.0,0.0,0.0,0.01446533203125,0.0062255859375,0.4493408203125,0.8931884765625,0.034158348396941304,-0.090485142981083,-0.17944520340473477
99,4.000058661000139,bno085,0.01171875,0.3125,9.91796875,0.0,0.0,0.0,0.01446533203125,0.0062255859375,0.4493408203125,0.8931884765625,0.034158348396941304,-0.090485142981083,-0.17944520340473477
100,4.040058012000145,bno085,0.01171875,0.3125,9.91796875,0.0,0.0,0.0,0.01446533203125,0.0062255859375,0.4493408203125,0.8931884765625,0.034158348396941304,-0.090485142981083,-0.17944520340473477
101,4.080058197000199,bno085,0.05078125,0.3125,9.9140625,0.0,0.0,0.0,0.01446533203125,0.0062255859375,0.4493408203125,0.8931884765625,0.034158348396941304,-0.090485142981083,-0.17944520340473477
102,4.120058511000025,bno085,0.01171875,0.3125,9.91796875,0.0,0.0,0.0,0.0145263671875,0.00616455078125,0.4493408203125,0.8931884765625,0.037263556471127515,-0.09987370341816282,-0.1792597515104438
103,4.160055826000189,bno085,0.01171875,0.3125,9.91796875,0.0,0.0,0.0,0.0145263671875,0.00616455078125,0.4493408203125,0.8931884765625,0.037263556471127515,-0.09987370341816282,-0.1792597515104438
104,4.200056047000089,bno085,0.01171875,0.3125,9.91796875,0.0,0.0,0.0,0.0145263671875,0.00616455078125,0.4493408203125,0.8931884765625,0.037263556471127515,-0.09987370341816282,-0.1792597515104438
105,4.240059158000122,bno085,0.01171875,0.3125,9.91796875,0.0,0.0,0.0,0.0145263671875,0.00616455078125,0.4493408203125,0.8931884765625,0.037263556471127515,-0.09987370341816282,-0.1792597515104438
106,4.28005760200017,bno085,0.05078125,0.3125,9.9140625,0.0,0.0,0.0,0.0145263671875,0.00616455078125,0.4493408203125,0.8931884765625,0.037263556471127515,-0.09987370341816282,-0.1792597515104438
107,4.320057119000012,bno085,0.01171875,0.3125,9.91796875,0.0,0.0,0.0,0.0145263671875,0.00616455078125,0.4493408203125,0.8931884765625,0.037263556471127515,-0.09987370341816282,-0.1792597515104438
108,4.3600553969999964,bno085,0.01171875,0.3125,9.91796875,0.0,0.0,0.0,0.0145263671875,0.00616455078125,0.4493408203125,0.8931884765625,0.037263556471127515,-0.09987370341816282,-0.1792597515104438
109,4.4000572660002035,bno085,0.01171875,0.3125,9.91796875,0.0,0.0,0.0,0.0145263671875,0.00616455078125,0.4493408203125,0.8931884765625,0.037263556471127515,-0.09987370341816282,-0.1792597515104438
110,4.440056951000088,bno085,0.05078125,0.3125,9.9140625,0.0,0.0,0.0,0.0145263671875,0.00616455078125,0.44927978515625,0.89324951171875,0.037281283506080516,-0.09994138743190027,-0.1861580701767748
111,4.480057432000194,bno085,0.01171875,0.3125,9.91796875,0.0,0.0,0.0,0.0145263671875,0.00616455078125,0.44921875,0.89324951171875,0.03727473731906387,-0.10011068129689057,-0.19492714279677884
112,4.520057765000047,bno085,0.01171875,0.3125,9.91796875,0.0,0.0,0.0,0.0145263671875,0.0062255859375,0.44921875,0.89324951171875,0.04041762548876174,-0.09386213299344759,-0.19498973192390645
113,4.560055227000021,bno085,0.05078125,0.3125,9.9140625,0.0,0.0,0.0,0.0145263671875,0.0062255859375,0.44921875,0.89324951171875,0.04041762548876174,-0.09386213299344759,-0.19498973192390645
114,4.600055134000058,bno085,0.01171875,0.3125,9.91796875,0.0,0.0,0.0,0.0145263671875,0.0062255859375,0.44921875,0.89324951171875,0.04041762548876174,-0.09386213299344759,-0.19498973192390645
115,4.6400555220000115,bno085,0.01171875,0.3125,9.91796875,0.0,0.0,0.0,0.0145263671875,0.0062255859375,0.44921875,0.89324951171875,0.04041762548876174,-0.09386213299344759,-0.19498973192390645
116,4.68005504000007,bno085,0.01171875,0.3125,9.91796875,0.0,0.0,0.0,0.01446533203125,0.0062255859375,0.44921875,0.89324951171875,0.034168249142357346,-0.09072254747712188,-0.1951125837151661
117,4.720054928000081,bno085,0.05078125,0.3125,9.9140625,0.0,0.0,0.0,0.01446533203125,0.0062255859375,0.44921875,0.89324951171875,0.034168249142357346,-0.09072254747712188,-0.1951125837151661
118,4.760055150000198,bno085,0.05078125,0.3125,9.9140625,0.0,0.0,0.0,0.01446533203125,0.0062255859375,0.44921875,0.89324951171875,0.034168249142357346,-0.09072254747712188,-0.1951125837151661
119,4.800055335000025,bno085,0.05078125,0.3125,9.9140625,0.0,0.0,0.0,0.01446533203125,0.0062255859375,0.44921875,0.89324951171875,0.034168249142357346,-0.09072254747712188,-0.1951125837151661
120,4.840055224000025,bno085,0.05078125,0.3125,9.9140625,0.0,0.0,0.0,0.0145263671875,0.0062255859375,0.44921875,0.89324951171875,0.04041762548876174,-0.09386213299344759,-0.19498973192390645
121,4.880055353000216,bno085,0.05078125,0.3125,9.9140625,0.00390625,0.001953125,0.001953125,0.0145263671875,0.0062255859375,0.44921875,0.89324951171875,0.04041762548876174,-0.09386213299344759,-0.19498973192390645
122,4.920055280000042,bno085,0.05078125,0.3125,9.9140625,0.0,0.0,0.0,0.0145263671875,0.0062255859375,0.44921875,0.89324951171875,0.04041762548876174,-0.09386213299344759,-0.19498973192390645
123,4.960055761000149,bno085,0.05078125,0.2734375,9.91796875,0.001953125,-0.001953125,0.001953125,0.0145263671875,0.0062255859375,0.44921875,0.89324951171875,0.04041762548876174,-0.09386213299344759,-0.19498973192390645
124,5.000055613000086,bno085,0.01171875,0.3125,9.91796875,0.0,0.001953125,0.001953125,0.01458740234375,0.00616455078125,0.44927978515625,0.89324951171875,0.043530667660090824,-0.1030814083469972,-0.18603546794113124
125,5.040055445999997,bno085,0.01171875,0.3125,9.91796875,-0.00390625,-0.001953125,0.0,0.01458740234375,0.006103515625,0.44927978515625,0.89324951171875,0.040387342692462906,-0.10932994526001064,-0.18597244506307672
126,5.080055965000156,bno085,0.05078125,0.3125,9.9140625,-0.00390625,-0.001953125,0.0,0.01458740234375,0.00604248046875,0.44921875,0.89324951171875,0.03723832421085002,-0.11574733009850041,-0.1946778207370443
127,5.120056539000188,bno085,0.01171875,0.3125,9.91796875,-0.001953125,-0.001953125,0.0,0.01458740234375,0.00604248046875,0.44921875,0.893310546875,0.037263061029010246,-0.11564656778969205,-0.19280657242124832
128,5.1600587240000095,bno085,0.05078125,0.3125,9.9140625,0.0,0.001953125,0.0,0.01458740234375,0.0059814453125,0.44921875,0.89324951171875,0.034095424297701876,-0.12199582788046946,-0.1946134306094151
129,5.200057836000042,bno085,0.01171875,0.3125,9.91796875,0.0,0.0,0.0,0.01458740234375,0.0059814453125,0.44921875,0.89324951171875,0.034095424297701876,-0.12199582788046946,-0.1946134306094151
130,5.240055484000095,bno085,0.01171875,0.3125,9.91796875,0.0,0.0,0.0,0.0145263671875,0.00592041015625,0.44921875,0.893310546875,0.02472748779151518,-0.12500476796288298,-0.19279865753372494
131,5.280055502000096,bno085,0.01171875,0.3125,9.91796875,0.0,0.0,-0.001953125,0.01458740234375,0.00592041015625,0.44921875,0.893310546875,0.030977260597126806,-0.12814439663673946,-0.19267708441966802
132,5.320056132000218,bno085,0.01171875,0.3125,9.91796875,0.0,0.0,0.001953125,0.01458740234375,0.00592041015625,0.44921875,0.89324951171875,0.03095252343206705,-0.12824430612502674,-0.19454835533825687
133,5.360055743000203,bno085,0.01171875,0.3125,9.91796875,0.00390625,0.0,0.0,0.01458740234375,0.00592041015625,0.44921875,0.89324951171875,0.03095252343206705,-0.12824430612502674,-0.19454835533825687
134,5.400057447000108,bno085,0.01171875,0.3125,9.91796875,0.0,0.0,0.0,0.01458740234375,0.0059814453125,0.44921875,0.893310546875,0.03412016128977768,-0.12189549198013046,-0.19274217098545932
135,5.440057225000146,bno085,0.01171875,0.3125,9.91796875,-0.001953125,0.001953125,0.0,0.01458740234375,0.0059814453125,0.44903564453125,0.89337158203125,0.03412925801953238,-0.12230168117451788,-0.21717551836819443
136,5.480056688000104,bno085,0.01171875,0.3125,9.91796875,-0.001953125,0.001953125,0.0,0.01458740234375,0.0059814453125,0.44903564453125,0.89337158203125,0.03412925801953238,-0.12230168117451788,-0.21717551836819443
137,5.520055373000105,bno085,0.05078125,0.3125,9.9140625,0.001953125,0.0,0.0,0.01458740234375,0.0059814453125,0.44903564453125,0.89337158203125,0.03412925801953238,-0.12230168117451788,-0.21717551836819443
138,5.560055262000105,bno085,0.01171875,0.3125,9.91796875,-0.005859375,-0.001953125,-0.001953125,0.01458740234375,0.0059814453125,0.44903564453125,0.89337158203125,0.03412925801953238,-0.12230168117451788,-0.21717551836819443
139,5.600055170000132,bno085,0.05078125,0.3125,9.9140625,0.0,0.0,0.0,0.01458740234375,0.00604248046875,0.44903564453125,0.89337158203125,0.03727087780434201,-0.11605233007853363,-0.21723992164173472
140,5.6400555220000115,bno085,0.05078125,0.3125,9.9140625,0.0,0.0,-0.001953125,0.01458740234375,0.0059814453125,0.448974609375,0.89337158203125,0.03412407640059537,-0.12247048090823437,-0.22594307190169577
141,5.680055207000123,bno085,0.05078125,0.3125,9.9140625,0.0,0.0,-0.001953125,0.0145263671875,0.0059814453125,0.448974609375,0.89337158203125,0.027873867067374575,-0.11933256743020731,-0.2260648721340377
142,5.720055021999997,bno085,0.01171875,0.3125,9.91796875,-0.005859375,-0.001953125,0.001953125,0.0145263671875,0.00592041015625,0.448974609375,0.89337158203125,0.02473268230723795,-0.12558189047243523,-0.22599953256014405
143,5.76005570700022,bno085,0.01171875,0.3125,9.91796875,-0.001953125,0.0,0.0,0.01446533203125,0.0059814453125,0.44903564453125,0.89337158203125,0.021628857470449778,-0.11602500140131156,-0.2174191293838621
144,5.80005585500021,bno085,0.01171875,0.3125,9.91796875,0.001953125,0.001953125,0.001953125,0.01446533203125,0.0059814453125,0.44903564453125,0.89337158203125,0.021628857470449778,-0.11602500140131156,-0.2174191293838621
145,5.840055004000078,bno085,0.01171875,0.3125,9.91796875,-0.001953125,-0.001953125,0.001953125,0.0145263671875,0.0059814453125,0.44903564453125,0.89337158203125,0.027879048879742546,-0.11916334111192875,-0.21729732380278574
146,5.880055246000211,bno085,0.01171875,0.3125,9.91796875,-0.001953125,-0.001953125,0.001953125,0.01446533203125,0.00592041015625,0.448974609375,0.89337158203125,0.018482500123061307,-0.12244396867799476,-0.22612107834097805
147,5.9200555610000265,bno085,0.01171875,0.3125,9.91796875,0.001953125,-0.001953125,0.0,0.01446533203125,0.00592041015625,0.448974609375,0.89337158203125,0.018482500123061307,-0.12244396867799476,-0.22612107834097805
148,5.9600558580000325,bno085,0.05078125,0.3125,9.9140625,0.0,0.001953125,0.001953125,0.01446533203125,0.00592041015625,0.44903564453125,0.89337158203125,0.018487255534179806,-0.1222743156102412,-0.21735353210402844
149,6.000055137000118,bno085,0.01171875,0.3125,9.91796875,0.001953125,0.0,0.0,0.01446533203125,0.00592041015625,0.44903564453125,0.89337158203125,0.018487255534179806,-0.1222743156102412,-0.21735353210402844
150,6.040055008000081,bno085,0.01171875,0.3125,9.91796875,0.001953125,0.0,0.0,0.01446533203125,0.0059814453125,0.448974609375,0.89337158203125,0.021623675466987163,-0.11619465430495296,-0.22618667251278193
151,6.080058768000072,bno085,0.01171875,0.3125,9.91796875,0.001953125,0.0,0.0,0.01446533203125,0.00592041015625,0.448974609375,0.89337158203125,0.018482500123061307,-0.12244396867799476,-0.22612107834097805
152,6.120056435000151,bno085,0.05078125,0.3125,9.9140625,0.0,-0.001953125,0.001953125,0.01446533203125,0.0059814453125,0.448974609375,0.89337158203125,0.021623675466987163,-0.11619465430495296,-0.22618667251278193
153,6.160057380000126,bno085,0.05078125,0.3125,9.9140625,-0.005859375,0.0,0.0,0.01446533203125,0.0059814453125,0.448974609375,0.89337158203125,0.021623675466987163,-0.11619465430495296,-0.22618667251278193
154,6.20005673300011,bno085,0.05078125,0.3125,9.9140625,-0.001953125,0.0,0.0,0.01446533203125,0.0059814453125,0.448974609375,0.89337158203125,0.021623675466987163,-0.11619465430495296,-0.22618667251278193
155,6.240057789000048,bno085,0.01171875,0.3125,9.91796875,-0.001953125,0.001953125,0.0,0.01446533203125,0.0059814453125,0.4488525390625,0.8934326171875,0.021637306393855412,-0.1164336092717037,-0.2418488884639679
156,6.280057068000133,bno085,0.05078125,0.3125,9.9140625,-0.001953125,0.001953125,0.0,0.014404296875,0.0059814453125,0.4488525390625,0.89349365234375,0.01541022651521023,-0.11319626211318969,-0.2400988519221871
157,6.3200566430000436,bno085,0.01171875,0.3125,9.91796875,-0.001953125,-0.001953125,0.0,0.014404296875,0.00592041015625,0.4488525390625,0.89349365234375,0.012269914133660702,-0.11944642098684688,-0.24003298679077248
158,6.3600569400000495,bno085,0.01171875,0.3125,9.91796875,-0.00390625,0.001953125,0.0,0.01434326171875,0.005859375,0.4488525390625,0.89349365234375,0.002878609747752189,-0.12255948405831205,-0.24008770489969597
159,6.400061200000209,bno085,0.01171875,0.3125,9.91796875,0.001953125,0.0,0.001953125,0.01434326171875,0.005859375,0.4488525390625,0.89349365234375,0.002878609747752189,-0.12255948405831205,-0.24008770489969597
160,6.440059552000093,bno085,0.05078125,0.3125,9.9140625,0.001953125,-0.001953125,0.0,0.01434326171875,0.00592041015625,0.4488525390625,0.89349365234375,0.006018913965570687,-0.1163093534178781,-0.24015450941474714
161,6.480059182000105,bno085,0.05078125,0.3125,9.9140625,0.001953125,-0.001953125,0.0,0.014404296875,0.00592041015625,0.4488525390625,0.89349365234375,0.012269914133660702,-0.11944642098684688,-0.24003298679077248
162,6.520056683000121,bno085,0.05078125,0.3125,9.9140625,-0.005859375,0.0,0.0,0.014404296875,0.00592041015625,0.4488525390625,0.89349365234375,0.012269914133660702,-0.11944642098684688,-0.24003298679077248
163,6.560059999000032,bno085,0.05078125,0.3125,9.9140625,-0.00390625,0.001953125,0.0,0.014404296875,0.00592041015625,0.4488525390625,0.89349365234375,0.012269914133660702,-0.11944642098684688,-0.24003298679077248
164,6.600058092000154,bno085,0.01171875,0.3125,9.91796875,0.0,-0.001953125,0.0,0.014404296875,0.00592041015625,0.4488525390625,0.89349365234375,0.012269914133660702,-0.11944642098684688,-0.24003298679077248
165,6.640059926000049,bno085,0.01171875,0.3125,9.91796875,0.00390625,0.0,0.0,0.014404296875,0.005859375,0.4488525390625,0.89349365234375,0.009129600503677433,-0.12569656029771287,-0.23996643694720018
166,6.68005840800015,bno085,0.05078125,0.3125,9.9140625,0.00390625,0.0,0.0,0.01446533203125,0.005859375,0.4488525390625,0.89349365234375,0.015380608788279446,-0.1288336369081627,-0.23984516913743506
167,6.720059353000124,bno085,0.05078125,0.3125,9.953125,-0.001953125,-0.001953125,0.0,0.01446533203125,0.005859375,0.4488525390625,0.89349365234375,0.015380608788279446,-0.1288336369081627,-0.23984516913743506
168,6.760057595000035,bno085,0.01171875,0.3125,9.91796875,0.0,-0.001953125,0.0,0.01446533203125,0.005859375,0.4488525390625,0.89349365234375,0.015380608788279446,-0.1288336369081627,-0.23984516913743506
169,6.80005935500003,bno085,0.01171875,0.3125,9.91796875,-0.00390625,0.0,-0.001953125,0.01446533203125,0.005859375,0.4488525390625,0.89349365234375,0.015380608788279446,-0.1288336369081627,-0.23984516913743506
170,6.840059856000153,bno085,0.01171875,0.3125,9.91796875,-0.001953125,0.0,0.0,0.014404296875,0.00579833984375,0.4488525390625,0.89349365234375,0.005989285503810051,-0.13194668011999652,-0.2398992023886201
171,6.880058747000021,bno085,0.01171875,0.3125,9.91796875,-0.001953125,0.0,0.0,0.014404296875,0.00579833984375,0.4488525390625,0.89349365234375,0.005989285503810051,-0.13194668011999652,-0.2398992023886201
172,6.92005806300017,bno085,0.05078125,0.3125,9.9140625,-0.00390625,0.0,-0.001953125,0.01446533203125,0.005859375,0.4488525390625,0.89349365234375,0.015380608788279446,-0.1288336369081627,-0.23984516913743506
173,6.96005656400007,bno085,0.05078125,0.3125,9.9140625,0.0,-0.001953125,0.001953125,0.014404296875,0.005859375,0.4488525390625,0.89349365234375,0.009129600503677433,-0.12569656029771287,-0.23996643694720018
174,7.000057936000076,bno085,0.01171875,0.3125,9.91796875,0.0,-0.001953125,-0.001953125,0.014404296875,0.005859375,0.4488525390625,0.89349365234375,0.009129600503677433,-0.12569656029771287,-0.23996643694720018
175,7.04005614100015,bno085,0.01171875,0.3125,9.91796875,0.001953125,0.0,0.0,0.014404296875,0.005859375,0.44879150390625,0.89349365234375,0.009125340187249361,-0.1258665930521574,-0.248732744804003
176,7.080057161000013,bno085,0.01171875,0.3125,9.91796875,0.001953125,0.0,0.0,0.014404296875,0.005859375,0.44879150390625,0.89349365234375,0.009125340187249361,-0.1258665930521574,-0.248732744804003
177,7.120057699000199,bno085,0.01171875,0.3125,9.91796875,0.0,0.0,0.0,0.014404296875,0.005859375,0.44879150390625,0.89349365234375,0.009125340187249361,-0.1258665930521574,-0.248732744804003
178,7.160056997000083,bno085,0.05078125,0.3125,9.9140625,0.00390625,0.001953125,0.0,0.01446533203125,0.005859375,0.44879150390625,0.89349365234375,0.015376348661190241,-0.12900324307762775,-0.24861148232394184
179,7.200057961000084,bno085,0.05078125,0.3125,9.9140625,-0.001953125,-0.001953125,0.0,0.01446533203125,0.005859375,0.44879150390625,0.89349365234375,0.015376348661190241,-0.12900324307762775,-0.24861148232394184
180,7.240057611000111,bno085,0.01171875,0.3125,9.91796875,0.00390625,-0.001953125,0.0,0.01446533203125,0.005859375,0.44879150390625,0.89349365234375,0.015376348661190241,-0.12900324307762775,-0.24861148232394184
181,7.280057797000154,bno085,0.01171875,0.3125,9.91796875,0.00390625,-0.001953125,0.0,0.01446533203125,0.005859375,0.44873046875,0.89349365234375,0.01537210443466085,-0.12917282826630178,-0.257377498007347
182,7.320056558000033,bno085,0.01171875,0.3125,9.91796875,-0.001953125,0.0,0.0,0.0145263671875,0.005859375,0.44873046875,0.89349365234375,0.021623130761777933,-0.13230905208875704,-0.2572562410046001
183,7.360058967000214,bno085,0.05078125,0.3125,9.9140625,-0.001953125,0.0,0.001953125,0.01446533203125,0.005859375,0.44879150390625,0.89349365234375,0.015376348661190241,-0.12900324307762775,-0.24861148232394184
184,7.40006263500004,bno085,0.05078125,0.3125,9.9140625,-0.001953125,0.0,-0.001953125,0.01446533203125,0.005859375,0.44879150390625,0.89349365234375,0.015376348661190241,-0.12900324307762775,-0.24861148232394184
185,7.440058377000014,bno085,0.01171875,0.3125,9.91796875,0.0,0.0,0.0,0.014404296875,0.00579833984375,0.44879150390625,0.89349365234375,0.0059854517781032495,-0.13211671303743544,-0.2486655134254893
186,7.480061897000041,bno085,0.01171875,0.3125,9.91796875,0.0,0.0,0.0,0.014404296875,0.00579833984375,0.44879150390625,0.89349365234375,0.0059854517781032495,-0.13211671303743544,-0.2486655134254893
187,7.520057713000142,bno085,0.01171875,0.3125,9.91796875,0.00390625,0.001953125,-0.001953125,0.014404296875,0.00579833984375,0.44879150390625,0.89349365234375,0.0059854517781032495,-0.13211671303743544,-0.2486655134254893
188,7.560060900000053,bno085,0.01171875,0.3125,9.91796875,0.005859375,0.0,0.0,0.014404296875,0.005859375,0.44879150390625,0.89349365234375,0.009125340187249361,-0.1258665930521574,-0.248732744804003
189,7.600059271000191,bno085,0.05078125,0.3125,9.9140625,0.0,0.001953125,0.0,0.014404296875,0.005859375,0.44879150390625,0.89349365234375,0.009125340187249361,-0.1258665930521574,-0.248732744804003
190,7.640058588000102,bno085,0.01171875,0.3125,9.91796875,0.0,0.0,0.0,0.01446533203125,0.005859375,0.44879150390625,0.89349365234375,0.015376348661190241,-0.12900324307762775,-0.24861148232394184
191,7.680060015000208,bno085,0.05078125,0.3125,9.9140625,0.0,0.0,0.0,0.01446533203125,0.00592041015625,0.44879150390625,0.89349365234375,0.018516245083653866,-0.12275309491373679,-0.24867777432258228
192,7.720058572000198,bno085,0.01171875,0.3125,9.91796875,0.001953125,0.0,0.001953125,0.01446533203125,0.00592041015625,0.44879150390625,0.89349365234375,0.018516245083653866,-0.12275309491373679,-0.24867777432258228
193,7.760060184000167,bno085,0.05078125,0.3125,9.9140625,-0.005859375,0.0,0.001953125,0.014404296875,0.00592041015625,0.44879150390625,0.89349365234375,0.012265227225814083,-0.11961645357804318,-0.24879929153035107
194,7.800059112000099,bno085,0.05078125,0.3125,9.9140625,0.005859375,0.00390625,0.001953125,0.014404296875,0.00592041015625,0.44879150390625,0.89349365234375,0.012265227225814083,-0.11961645357804318,-0.24879929153035107
195,7.8400593170001684,bno085,0.05078125,0.3125,9.953125,0.0,0.001953125,0.0,0.01446533203125,0.00592041015625,0.44879150390625,0.89349365234375,0.018516245083653866,-0.12275309491373679,-0.24867777432258228
196,7.880058319,bno085,0.01171875,0.3125,9.91796875,0.0,0.001953125,0.0,0.01446533203125,0.00592041015625,0.44842529296875,0.8936767578125,0.01856052126672629,-0.12347087271808778,-0.295651292694756
197,7.920057303000021,bno085,0.01171875,0.3125,9.91796875,0.001953125,0.001953125,0.00390625,0.0145263671875,0.00592041015625,0.448486328125,0.8936767578125,0.024817396644088927,-0.12643587703799153,-0.28676581195778555
198,7.960056342000144,bno085,0.05078125,0.3125,9.9140625,0.0,0.0,-0.001953125,0.0145263671875,0.00592041015625,0.44818115234375,0.893798828125,0.024843735866155087,-0.12708150548202704,-0.3268369817131949
199,8.000059196000166,bno085,0.05078125,0.3125,9.9140625,0.001953125,0.0,-0.001953125,0.0145263671875,0.00592041015625,0.44818115234375,0.893798828125,0.024843735866155087,-0.12708150548202704,-0.3268369817131949
200,8.040059179000082,bno085,0.01171875,0.3125,9.91796875,0.0,-0.001953125,0.0,0.0145263671875,0.005859375,0.4481201171875,0.89385986328125,0.021728564170802808,-0.1334034446798136,-0.3336602105472529
201,8.080059255000151,bno085,0.01171875,0.3125,9.91796875,0.0,-0.001953125,0.0,0.0145263671875,0.00579833984375,0.4481201171875,0.89385986328125,0.018593350652492013,-0.13965614246048574,-0.3335934574492864
202,8.120057258000088,bno085,0.01171875,0.3125,9.91796875,-0.005859375,0.001953125,-0.001953125,0.0145263671875,0.00579833984375,0.44805908203125,0.89385986328125,0.018589771087645427,-0.13982511808084805,-0.34235517747574296
203,8.160059482000179,bno085,0.05078125,0.3125,9.9140625,-0.001953125,0.001953125,0.0,0.0145263671875,0.00579833984375,0.44805908203125,0.89385986328125,0.018589771087645427,-0.13982511808084805,-0.34235517747574296
204,8.2000599280002,bno085,0.05078125,0.3125,9.9140625,-0.00390625,0.0,0.0,0.0145263671875,0.00579833984375,0.44805908203125,0.89385986328125,0.018589771087645427,-0.13982511808084805,-0.34235517747574296
205,8.240059171000212,bno085,0.01171875,0.3125,9.91796875,-0.005859375,0.0,0.0,0.0145263671875,0.00579833984375,0.44805908203125,0.89385986328125,0.018589771087645427,-0.13982511808084805,-0.34235517747574296
206,8.280058654000186,bno085,0.05078125,0.3125,9.9140625,-0.005859375,0.0,0.0,0.0145263671875,0.0057373046875,0.44793701171875,0.8939208984375,0.01547325620573834,-0.14631722210750497,-0.3579370314455542
207,8.32005813800015,bno085,0.05078125,0.3125,9.9140625,0.00390625,0.001953125,0.001953125,0.01458740234375,0.00579833984375,0.44781494140625,0.89398193359375,0.024879165561114077,-0.14343289609334714,-0.37353118241902183
208,8.36005871400016,bno085,0.05078125,0.3125,9.9140625,0.001953125,0.00390625,0.0,0.01458740234375,0.00579833984375,0.44781494140625,0.89398193359375,0.024879165561114077,-0.14343289609334714,-0.37353118241902183
209,8.400064753000152,bno085,0.01171875,0.3125,9.91796875,0.00390625,0.0,-0.001953125,0.01458740234375,0.00579833984375,0.44781494140625,0.89398193359375,0.024879165561114077,-0.14343289609334714,-0.37353118241902183
210,8.440059051000162,bno085,0.05078125,0.3125,9.9140625,0.00390625,0.0,0.001953125,0.01458740234375,0.00579833984375,0.44775390625,0.89398193359375,0.02487568668443735,-0.14360135610680805,-0.38229107416642855
211,8.48005977600019,bno085,0.05078125,0.3125,9.9140625,0.00390625,0.0,0.001953125,0.01458740234375,0.00579833984375,0.44781494140625,0.89398193359375,0.024879165561114077,-0.14343289609334714,-0.37353118241902183
212,8.52001561100019,bno085,0.05078125,0.3125,9.9140625,0.001953125,0.0,0.0,0.01458740234375,0.00579833984375,0.44775390625,0.89398193359375,0.02487568668443735,-0.14360135610680805,-0.38229107416642855
213,8.560059354000032,bno085,0.05078125,0.3125,9.9140625,0.005859375,0.001953125,-0.001953125,0.0146484375,0.00579833984375,0.44775390625,0.89398193359375,0.031130153566948617,-0.14673076280796007,-0.3821702101788925
214,8.600057485000207,bno085,0.01171875,0.3125,9.91796875,0.0,0.001953125,-0.001953125,0.0146484375,0.00579833984375,0.44775390625,0.89398193359375,0.031130153566948617,-0.14673076280796007,-0.3821702101788925
215,8.640058747000012,bno085,0.05078125,0.3125,9.9140625,-0.001953125,0.0,0.0,0.0146484375,0.00579833984375,0.44775390625,0.89398193359375,0.031130153566948617,-0.14673076280796007,-0.3821702101788925
216,8.680070471000136,bno085,0.01171875,0.3125,9.91796875,-0.001953125,0.0,0.0,0.0146484375,0.0057373046875,0.44775390625,0.89398193359375,0.02799748017280929,-0.1529843127405657,-0.3821032820523737
217,8.72006080600022,bno085,0.05078125,0.3125,9.9140625,-0.001953125,0.001953125,0.0,0.0146484375,0.00579833984375,0.44775390625,0.89398193359375,0.031130153566948617,-0.14673076280796007,-0.3821702101788925
218,8.76006653100012,bno085,0.01171875,0.3125,9.91796875,0.0,0.0,0.0,0.0146484375,0.0057373046875,0.44775390625,0.89404296875,0.028022896078287417,-0.15288587301272133,-0.3802298524832265
219,8.800059218000115,bno085,0.05078125,0.3125,9.9140625,-0.005859375,0.0,0.0,0.0146484375,0.0057373046875,0.44775390625,0.89404296875,0.028022896078287417,-0.15288587301272133,-0.3802298524832265
220,8.840060295000058,bno085,0.05078125,0.3125,9.9140625,-0.00390625,0.0,0.0,0.01470947265625,0.0057373046875,0.44775390625,0.89398193359375,0.03425195602085995,-0.1561137287242094,-0.38198267372821476
221,8.880059501000005,bno085,0.01171875,0.3125,9.91796875,-0.00390625,0.0,0.0,0.01470947265625,0.0057373046875,0.44781494140625,0.89398193359375,0.03425500790981887,-0.15594612170867114,-0.3732227675033558
222,8.920057300000053,bno085,0.05078125,0.3125,9.9140625,0.001953125,0.0,0.0,0.0147705078125,0.0057373046875,0.4478759765625,0.89398193359375,0.04051256940786137,-0.15890876331607776,-0.3643419429115015
223,8.960057969000218,bno085,0.01171875,0.3125,9.91796875,0.0,-0.001953125,0.001953125,0.01470947265625,0.0057373046875,0.4478759765625,0.89398193359375,0.03425807569941945,-0.1557784937121653,-0.36446256212288775
224,9.000058898000134,bno085,0.05078125,0.3125,9.9140625,0.001953125,0.0,0.001953125,0.01470947265625,0.0057373046875,0.4478759765625,0.89398193359375,0.03425807569941945,-0.1557784937121653,-0.36446256212288775
225,9.040058863000013,bno085,0.01171875,0.3125,9.91796875,0.0,0.0,0.0,0.0146484375,0.00567626953125,0.4478759765625,0.89398193359375,0.024870072264716513,-0.15890175500369455,-0.36451556272686747
226,9.080060236999998,bno085,0.05078125,0.3125,9.9140625,0.0,0.0,0.0,0.0146484375,0.00567626953125,0.44793701171875,0.8939208984375,0.024847344970413205,-0.15883171641166782,-0.35762815758581634
227,9.120057406000114,bno085,0.05078125,0.3125,9.9140625,0.0,0.0,-0.001953125,0.01458740234375,0.00567626953125,0.44793701171875,0.8939208984375,0.01859332333045489,-0.1557010120948976,-0.3577485335606696
228,9.160059186000126,bno085,0.05078125,0.3125,9.9140625,-0.001953125,0.0,0.0,0.0146484375,0.00567626953125,0.44793701171875,0.8939208984375,0.024847344970413205,-0.15883171641166782,-0.35762815758581634
229,9.20005809600002,bno085,0.01171875,0.3125,9.91796875,0.001953125,0.0,0.001953125,0.0146484375,0.00567626953125,0.44793701171875,0.8939208984375,0.024847344970413205,-0.15883171641166782,-0.35762815758581634
230,9.240058506000196,bno085,0.01171875,0.3125,9.91796875,-0.001953125,0.001953125,0.0,0.0146484375,0.00567626953125,0.44793701171875,0.8939208984375,0.024847344970413205,-0.15883171641166782,-0.35762815758581634
231,9.280058305000011,bno085,0.01171875,0.3125,9.91796875,-0.001953125,0.001953125,0.0,0.0146484375,0.00567626953125,0.44793701171875,0.8939208984375,0.024847344970413205,-0.15883171641166782,-0.35762815758581634
232,9.320059086000128,bno085,0.05078125,0.3125,9.9140625,-0.005859375,0.0,-0.001953125,0.01458740234375,0.00567626953125,0.44793701171875,0.8939208984375,0.01859332333045489,-0.1557010120948976,-0.3577485335606696
233,9.360058866000145,bno085,0.05078125,0.3125,9.9140625,0.0,0.0,0.0,0.01458740234375,0.00567626953125,0.44793701171875,0.8939208984375,0.01859332333045489,-0.1557010120948976,-0.3577485335606696
234,9.400062423999998,bno085,0.05078125,0.3125,9.9140625,0.0,0.0,0.0,0.01458740234375,0.00567626953125,0.44793701171875,0.8939208984375,0.01859332333045489,-0.1557010120948976,-0.3577485335606696
235,9.440058946000136,bno085,0.05078125,0.3125,9.9140625,0.0,0.0,0.0,0.01458740234375,0.005615234375,0.44793701171875,0.8939208984375,0.015459376114543814,-0.1619540879405396,-0.35767998347237845
236,9.480059652000136,bno085,0.05078125,0.3125,9.9140625,0.0,0.0,0.0,0.01458740234375,0.005615234375,0.44793701171875,0.8939208984375,0.015459376114543814,-0.1619540879405396,-0.35767998347237845
237,9.52005882100002,bno085,0.05078125,0.3125,9.9140625,0.0,0.0,0.0,0.01458740234375,0.005615234375,0.44793701171875,0.8939208984375,0.015459376114543814,-0.1619540879405396,-0.35767998347237845
238,9.56005832400001,bno085,0.01171875,0.3125,9.91796875,0.0,0.0,0.0,0.01458740234375,0.005615234375,0.44793701171875,0.8939208984375,0.015459376114543814,-0.1619540879405396,-0.35767998347237845
239,9.600060141000085,bno085,0.05078125,0.3125,9.9140625,0.0,0.0,0.0,0.01458740234375,0.005615234375,0.44793701171875,0.8939208984375,0.015459376114543814,-0.1619540879405396,-0.35767998347237845
240,9.640059792000102,bno085,0.05078125,0.3125,9.9140625,0.0,0.0,0.0,0.0146484375,0.005615234375,0.44793701171875,0.8939208984375,0.021713388695236976,-0.16508480116146684,-0.3575598628695188
241,9.68005886900005,bno085,0.05078125,0.3125,9.9140625,0.0,0.0,0.0,0.0146484375,0.005615234375,0.44793701171875,0.8939208984375,0.021713388695236976,-0.16508480116146684,-0.3575598628695188
242,9.720058150000114,bno085,0.05078125,0.3125,9.9140625,0.0,0.0,0.0,0.0146484375,0.00555419921875,0.44793701171875,0.8939208984375,0.018579430770957205,-0.17133786689050795,-0.35749088445948385
243,9.760059430000183,bno085,0.01171875,0.3125,9.91796875,0.0,0.0,0.0,0.01470947265625,0.00555419921875,0.44793701171875,0.8939208984375,0.024833452560402168,-0.17446858955890937,-0.357371019360291
244,9.800059525000052,bno085,0.05078125,0.3125,9.9140625,0.0,0.0,0.0,0.01470947265625,0.00555419921875,0.44793701171875,0.8939208984375,0.024833452560402168,-0.17446858955890937,-0.357371019360291
245,9.840057343000126,bno085,0.05078125,0.3125,9.9140625,0.0,0.0,0.0,0.01470947265625,0.00555419921875,0.44793701171875,0.8939208984375,0.024833452560402168,-0.17446858955890937,-0.357371019360291
246,9.880059532000132,bno085,0.05078125,0.3125,9.9140625,0.0,0.0,0.0,0.01470947265625,0.00555419921875,0.44793701171875,0.8939208984375,0.024833452560402168,-0.17446858955890937,-0.357371019360291
247,9.920058054000037,bno085,0.05078125,0.3125,9.9140625,0.0,0.0,0.0,0.01470947265625,0.00555419921875,0.44793701171875,0.8939208984375,0.024833452560402168,-0.17446858955890937,-0.357371019360291
248,9.960057557000027,bno085,0.05078125,0.3125,9.9140625,0.0,0.0,0.0,0.01470947265625,0.00555419921875,0.44793701171875,0.8939208984375,0.024833452560402168,-0.17446858955890937,-0.357371019360291
