sample,time_s,sensor,accel_x_mps2,accel_y_mps2,accel_z_mps2,gyro_x_radps,gyro_y_radps,gyro_z_radps,quat_i,quat_j,quat_k,quat_real,roll_deg,pitch_deg,yaw_deg
0,0.040060863000007885,bno085,0.30859375,0.09765625,9.62890625,0.001953125,0.0234375,-0.001953125,0.0042724609375,-0.0123291015625,-0.0001220703125,0.99993896484375,-1.6628460939707182e-08,-5.762337949403479e-09,5.819961349367123e-07
1,0.08006143000000066,bno085,0.15625,0.05859375,9.625,0.005859375,0.013671875,0.001953125,0.00433349609375,-0.01202392578125,-0.0001220703125,0.99993896484375,0.0069859260181217055,0.03497893283458709,-0.00023288541160947123
2,0.12005884799998512,bno085,0.2734375,0.05859375,9.625,0.00390625,0.00390625,0.0,0.00433349609375,-0.01202392578125,-0.0001220703125,0.99993896484375,0.0069859260181217055,0.03497893283458709,-0.00023288541160947123
3,0.1600578410000253,bno085,0.1171875,0.0234375,9.625,0.0,-0.017578125,0.001953125,0.00439453125,-0.01202392578125,-6.103515625e-05,0.99993896484375,0.014068197131143333,0.03500811001370986,0.006676708959444497
4,0.20005783400006294,bno085,0.15625,0.05859375,9.625,0.0,-0.017578125,0.001953125,0.00439453125,-0.0123291015625,-6.103515625e-05,0.99993896484375,0.014074117551145257,2.9270136842213643e-05,0.006821805419895983
5,0.2400583449999658,bno085,0.34765625,0.09765625,9.625,0.005859375,-0.001953125,0.001953125,0.00439453125,-0.01251220703125,0.0,0.99993896484375,0.014162635195483475,-0.02092926451509028,0.013902557509244632
6,0.2800601149999693,bno085,0.08203125,0.09765625,9.625,-0.001953125,-0.041015625,0.00390625,0.00439453125,-0.0133056640625,0.0,0.9998779296875,0.014141788710123575,-0.11178457121813883,0.014279024418989662
7,0.3200584969999909,bno085,0.34765625,0.09765625,9.625,-0.001953125,-0.03125,0.0,0.00439453125,-0.0133056640625,0.0,0.9998779296875,0.014141788710123575,-0.11178457121813883,0.014279024418989662
8,0.3600585819999651,bno085,0.234375,0.05859375,9.625,-0.001953125,0.01171875,0.001953125,0.00433349609375,-0.01409912109375,6.103515625e-05,0.9998779296875,0.00723169210709167,-0.20270093168088194,0.021748172427649603
9,0.4000580560000344,bno085,0.1953125,0.05859375,9.62890625,-0.001953125,0.01171875,0.001953125,0.0042724609375,-0.0137939453125,6.103515625e-05,0.9998779296875,0.00023627324524192443,-0.16771975893890217,0.021697401936449034
10,0.4400581229999716,bno085,0.2734375,0.09765625,9.62890625,0.0,0.005859375,0.001953125,0.00421142578125,-0.01361083984375,0.0001220703125,0.9998779296875,-0.006681127063223308,-0.14670060467379048,0.028696248368278877
11,0.48005602299997463,bno085,0.1953125,0.09765625,9.625,-0.005859375,0.00390625,0.001953125,0.004150390625,-0.013427734375,0.0001220703125,0.9998779296875,-0.01367445051130425,-0.1257115101575523,0.028699246090160904
12,0.5200572930000362,bno085,0.04296875,-0.20703125,9.62890625,0.001953125,0.033203125,0.0,0.004150390625,-0.013427734375,0.0001220703125,0.9998779296875,-0.01367445051130425,-0.1257115101575523,0.028699246090160904
13,0.5600568780000685,bno085,0.234375,0.0234375,9.625,0.0078125,0.00390625,0.00390625,0.00421142578125,-0.012939453125,0.0001220703125,0.9998779296875,-0.006679711118184239,-0.0697476628539352,0.028362937249069006
14,0.6000601490000008,bno085,0.46484375,0.09765625,9.625,0.0078125,0.00390625,0.00390625,0.00433349609375,-0.0126953125,0.00018310546875,0.99993896484375,0.007421985510459553,-0.04182803712015935,0.03505948313685245
15,0.6400580860000673,bno085,0.15625,0.17578125,9.625,-0.001953125,0.03125,0.0,0.00433349609375,-0.01190185546875,0.000244140625,0.99993896484375,0.0075181731774314545,0.04914681384404069,0.041670380311198414
16,0.6800603929999625,bno085,0.234375,0.328125,9.625,0.009765625,0.01953125,0.005859375,0.00445556640625,-0.01129150390625,0.00030517578125,0.99993896484375,0.021608903024921734,0.11912625922040124,0.04821177977666679
17,0.7200587560000713,bno085,0.08203125,-0.32421875,9.625,0.00390625,-0.00390625,0.001953125,0.00445556640625,-0.01129150390625,0.00030517578125,0.99993896484375,0.021608903024921734,0.11912625922040124,0.04821177977666679
18,0.7600574340000321,bno085,0.234375,0.05859375,9.625,0.0,-0.001953125,0.00390625,0.00445556640625,-0.0111083984375,0.0003662109375,0.99993896484375,0.021707838883490115,0.14014108439963113,0.055119756470375814
19,0.8000571669999772,bno085,0.234375,0.13671875,9.62890625,0.0,-0.001953125,0.00390625,0.00439453125,-0.010986328125,0.00042724609375,0.99993896484375,0.014813365222271712,0.15416398474166879,0.06213313852281172
20,0.8400570669999752,bno085,0.2734375,0.25,9.625,0.00390625,0.001953125,0.001953125,0.00439453125,-0.01092529296875,0.00048828125,0.99993896484375,0.014911716421537446,0.16118821049916954,0.06909786270747612
21,0.8800579300000209,bno085,0.42578125,0.25,9.625,-0.0078125,0.03125,-0.041015625,0.00433349609375,-0.01025390625,6.103515625e-05,0.99993896484375,0.007241820001413383,0.2379347349642136,0.019894352998949285
22,0.9200571640000135,bno085,0.234375,-0.16796875,9.625,0.00390625,-0.00390625,0.005859375,0.00445556640625,-0.01019287109375,6.103515625e-05,0.99993896484375,0.021228807606799634,0.24492781606535996,0.01972234375174187
23,0.9600588970000672,bno085,0.38671875,0.21484375,9.625,-0.001953125,0.03125,0.009765625,0.00445556640625,-0.01019287109375,6.103515625e-05,0.99993896484375,0.021228807606799634,0.24492781606535996,0.01972234375174187
24,1.0000580010000704,bno085,0.1953125,-0.015625,9.625,-0.001953125,0.02734375,0.0,0.00457763671875,-0.00958251953125,0.000244140625,0.99993896484375,0.03552913560752203,0.31495950967645653,0.04028388741169383
25,1.0400589010000658,bno085,0.1171875,0.0234375,9.625,-0.001953125,0.02734375,0.0,0.00457763671875,-0.00885009765625,0.00030517578125,0.99993896484375,0.03565107699686718,0.39892587374064936,0.04694518685884499
26,1.08005885700004,bno085,0.1953125,0.05859375,9.62890625,0.0,0.005859375,0.0078125,0.00445556640625,-0.00860595703125,0.0003662109375,0.99993896484375,0.021781852799902312,0.42693872203280236,0.05394860507034116
27,1.1200582200000326,bno085,0.1171875,0.05859375,9.625,0.0,0.005859375,0.001953125,0.00433349609375,-0.00848388671875,0.00042724609375,0.99993896484375,0.007911658007193378,0.4409635967985373,0.061004034091747504
28,1.1600596010000572,bno085,0.1171875,0.09765625,9.62890625,0.0,-0.00390625,0.0,0.00433349609375,-0.00848388671875,0.00042724609375,0.99993896484375,0.007911658007193378,0.4409635967985373,0.061004034091747504
29,1.200057816000026,bno085,0.15625,0.09765625,9.62890625,-0.001953125,0.001953125,0.0,0.00421142578125,-0.00848388671875,0.00042724609375,0.99993896484375,-0.006075313956328468,0.4409705850852474,0.061122656855492015
30,1.2400574939999842,bno085,0.15625,0.09765625,9.62890625,-0.001953125,0.001953125,0.0,0.00408935546875,-0.0084228515625,0.00048828125,0.99993896484375,-0.019946377843958873,0.4480032363391651,0.06820406884647336
31,1.2800592280000274,bno085,0.15625,0.05859375,9.625,0.001953125,0.0078125,0.001953125,0.0040283203125,-0.00823974609375,0.00048828125,0.99993896484375,-0.02693175608331788,0.46899108427063446,0.06816838189490802
32,1.3200578869999617,bno085,0.1171875,0.05859375,9.625,-0.00390625,0.00390625,0.001953125,0.00396728515625,-0.008056640625,0.00048828125,0.99993896484375,-0.03391710977839057,0.4899787837665449,0.06813014148234255
33,1.3600578430000496,bno085,0.15625,0.05859375,9.625,0.001953125,0.001953125,0.00390625,0.00396728515625,-0.008056640625,0.00048828125,0.99993896484375,-0.03391710977839057,0.4899787837665449,0.06813014148234255
34,1.4000583540000662,bno085,0.15625,0.05859375,9.625,0.005859375,0.0,0.0,0.00390625,-0.00799560546875,0.00048828125,0.99993896484375,-0.040907834728454134,0.49697724559810574,0.06815408931989092
35,1.4400572910000164,bno085,0.1171875,0.09765625,9.62890625,0.005859375,0.0,0.0,0.00390625,-0.0079345703125,0.00054931640625,0.99993896484375,-0.04078809951385846,0.5040040450452171,0.07511565816752502
36,1.4800654870000471,bno085,0.15625,0.09765625,9.62890625,0.0,0.001953125,0.0,0.00384521484375,-0.00787353515625,0.00054931640625,0.99993896484375,-0.047778382936103654,0.5110028955500471,0.07513833110818717
37,1.5200579060000337,bno085,0.1953125,0.09765625,9.625,0.001953125,0.00390625,-0.001953125,0.00390625,-0.00775146484375,0.00054931640625,0.99993896484375,-0.04077873224636656,0.5249876226855708,0.07501857225809123
38,1.5600547689999757,bno085,0.1171875,0.05859375,9.6640625,0.00390625,0.005859375,0.0,0.00390625,-0.00775146484375,0.00054931640625,0.99993896484375,-0.04077873224636656,0.5249876226855708,0.07501857225809123
39,1.60006011400003,bno085,0.15625,0.05859375,9.625,0.0,0.001953125,0.0,0.00390625,-0.00762939453125,0.00054931640625,0.99993896484375,-0.04077249040402729,0.5389766081205696,0.07495385295429992
40,1.6400581620000594,bno085,0.15625,0.09765625,9.62890625,0.0,0.001953125,0.0,0.00390625,-0.00750732421875,0.00054931640625,0.99993896484375,-0.040766250962529456,0.5529655414674892,0.07488913734570496
41,1.6800632839999707,bno085,0.1171875,0.05859375,9.625,0.0,0.00390625,0.0,0.00390625,-0.00738525390625,0.0006103515625,0.99993896484375,-0.040639126117808566,0.5669866494918947,0.08181843844635363
42,1.7200580360000686,bno085,0.1171875,0.05859375,9.6640625,0.0,0.0,-0.001953125,0.00384521484375,-0.00738525390625,0.0006103515625,0.99993896484375,-0.047632512634432085,0.5669913583373174,0.08187005602727053
43,1.760058066000056,bno085,0.15625,0.09765625,9.62890625,0.00390625,0.0,0.0,0.00384521484375,-0.00738525390625,0.0006103515625,0.99993896484375,-0.047632512634432085,0.5669913583373174,0.08187005602727053
44,1.8000574659999984,bno085,0.1171875,0.09765625,9.62890625,0.001953125,0.0,0.0,0.00390625,-0.00732421875,0.0006103515625,0.99993896484375,-0.040635581589360516,0.5739810716169704,0.08178609236266099
45,1.8400571810000201,bno085,0.1171875,0.05859375,9.625,0.001953125,0.0,0.0,0.00396728515625,-0.00732421875,0.0006103515625,0.99993896484375,-0.03364219042272274,0.5739763664124177,0.08173490161153946
46,1.8800577849999627,bno085,0.1171875,0.09765625,9.62890625,-0.001953125,0.005859375,0.0,0.00390625,-0.00726318359375,0.0006103515625,0.99993896484375,-0.04063203765758472,0.5809754812413027,0.08175374729976251
47,1.9200579070000003,bno085,0.1171875,0.05859375,9.625,0.001953125,0.0,0.0,0.00396728515625,-0.0072021484375,0.0006103515625,0.99993896484375,-0.03363510689466108,0.5879651805474357,0.08167106616537176
48,1.9600577520000115,bno085,0.15625,0.05859375,9.625,-0.005859375,0.001953125,-0.001953125,0.00396728515625,-0.0072021484375,0.0006103515625,0.99993896484375,-0.03363510689466108,0.5879651805474357,0.08167106616537176
49,2.000057319000007,bno085,0.15625,0.09765625,9.62890625,0.0,0.00390625,0.0,0.0040283203125,-0.0072021484375,0.00054931640625,0.99993896484375,-0.026763881287095042,0.5879291101018016,0.07462668297666074
50,2.040058515000055,bno085,0.15625,0.09765625,9.66796875,0.0,0.00390625,0.0,0.0040283203125,-0.00714111328125,0.00054931640625,0.99993896484375,-0.026760768891382212,0.594923502280386,0.07459518479869273
51,2.080060526000011,bno085,0.1171875,0.05859375,9.625,0.001953125,0.0,0.001953125,0.0040283203125,-0.007080078125,0.00054931640625,0.99993896484375,-0.026757656886431433,0.6019178822701574,0.07456368753366047
52,2.120056333999969,bno085,0.15625,0.09765625,9.66796875,-0.001953125,0.001953125,0.0,0.0040283203125,-0.00701904296875,0.00054931640625,0.99993896484375,-0.02675454527210512,0.6089122501752811,0.07453219118015977
53,2.1600584379999646,bno085,0.15625,0.05859375,9.625,0.0,0.0,0.0,0.0040283203125,-0.00701904296875,0.00054931640625,0.99993896484375,-0.02675454527210512,0.6089122501752811,0.07453219118015977
54,2.200057579000031,bno085,0.1171875,0.09765625,9.62890625,-0.001953125,0.0,0.0,0.0040283203125,-0.0069580078125,0.00054931640625,0.99993896484375,-0.026751434048265726,0.6159066060999233,0.07450069573678654
55,2.2400571079999736,bno085,0.1171875,0.05859375,9.6640625,-0.001953125,0.0,0.0,0.0040283203125,-0.0069580078125,0.00054931640625,0.99993896484375,-0.026751434048265726,0.6159066060999233,0.07450069573678654
56,2.2800576749999664,bno085,0.1171875,0.05859375,9.6640625,0.00390625,0.001953125,0.001953125,0.00408935546875,-0.0069580078125,0.00054931640625,0.99993896484375,-0.019758039221527173,0.6159023495084973,0.07445206234249788
57,2.3200568529999828,bno085,0.1171875,0.09765625,9.62890625,0.001953125,0.0,0.0,0.004150390625,-0.0069580078125,0.00054931640625,0.99993896484375,-0.012764637407575627,0.6158980929163802,0.07440342894829162
58,2.360057328000039,bno085,0.15625,0.09765625,9.62890625,0.0,0.001953125,0.0,0.004150390625,-0.0069580078125,0.00054931640625,0.99993896484375,-0.012764637407575627,0.6158980929163802,0.07440342894829162
59,2.4000570800000105,bno085,0.1171875,0.05859375,9.625,0.00390625,0.0,0.0,0.004150390625,-0.0069580078125,0.00054931640625,0.99993896484375,-0.012764637407575627,0.6158980929163802,0.07440342894829162
60,2.4400579240000297,bno085,0.1171875,0.09765625,9.66796875,0.00390625,0.0,0.0,0.00421142578125,-0.0069580078125,0.00054931640625,0.99993896484375,-0.005771228502246532,0.6158938363235442,0.07435479555416785
61,2.480056343000001,bno085,0.1171875,0.09765625,9.62890625,0.00390625,0.0,0.00390625,0.0042724609375,-0.0069580078125,0.00054931640625,0.99993896484375,0.0012221875986240362,0.6158895797299612,0.07430616216012663
62,2.52005976199996,bno085,0.1171875,0.09765625,9.62890625,0.0,0.001953125,0.0,0.00421142578125,-0.0069580078125,0.0006103515625,0.99993896484375,-0.00564735210650931,0.6159239287094022,0.08134888841613896
63,2.560058068999979,bno085,0.1171875,0.05859375,9.625,0.00390625,-0.001953125,-0.001953125,0.00421142578125,-0.0069580078125,0.0006103515625,0.99993896484375,-0.00564735210650931,0.6159239287094022,0.08134888841613896
64,2.6000589689999742,bno085,0.15625,0.05859375,9.625,0.0,0.001953125,-0.001953125,0.0042724609375,-0.0069580078125,0.0006103515625,0.99993896484375,0.0013460640329929945,0.6159192453496452,0.08130025865029292
65,2.6400579439999774,bno085,0.15625,0.05859375,9.6640625,0.0,0.001953125,-0.001953125,0.0042724609375,-0.0069580078125,0.0006103515625,0.99993896484375,0.0013460640329929945,0.6159192453496452,0.08130025865029292
66,2.680058344000031,bno085,0.15625,0.05859375,9.625,0.001953125,0.0,0.001953125,0.0042724609375,-0.00689697265625,0.0006103515625,0.99993896484375,0.001349596608218495,0.6229136040043757,0.08127048067436646
67,2.7200571330000685,bno085,0.15625,0.05859375,9.6640625,0.0,0.0,0.0,0.00421142578125,-0.00689697265625,0.0006103515625,0.99993896484375,-0.005643818234541284,0.6229182837228784,0.08131868360813216
68,2.7600592180000376,bno085,0.15625,0.05859375,9.625,-0.001953125,0.001953125,-0.001953125,0.00421142578125,-0.00689697265625,0.0006103515625,0.99993896484375,-0.005643818234541284,0.6229182837228784,0.08131868360813216
69,2.800059137000062,bno085,0.1171875,0.09765625,9.62890625,-0.00390625,0.0,0.001953125,0.004150390625,-0.0068359375,0.00054931640625,0.99993896484375,-0.012758421110831752,0.6298867838080102,0.0743421481156475
70,2.840056870000012,bno085,0.15625,0.05859375,9.6640625,-0.00390625,0.0,0.001953125,0.00408935546875,-0.0068359375,0.0006103515625,0.99993896484375,-0.019627090253285833,0.6299219791169601,0.08138403201571705
71,2.8800572889999785,bno085,0.1171875,0.05859375,9.6640625,-0.001953125,0.00390625,-0.001953125,0.0040283203125,-0.00677490234375,0.0006103515625,0.99993896484375,-0.02661694563980211,0.6369209758427175,0.08140032483467599
72,2.920056837000061,bno085,0.15625,0.05859375,9.625,-0.005859375,-0.001953125,0.0,0.0040283203125,-0.0068359375,0.00054931640625,0.99993896484375,-0.026745212771497662,0.6298952824244355,0.07443770757480639
73,2.9600577930000327,bno085,0.15625,0.05859375,9.6640625,-0.001953125,0.0,0.0,0.0040283203125,-0.0068359375,0.00054931640625,0.99993896484375,-0.026745212771497662,0.6298952824244355,0.07443770757480639
74,3.0000599160000547,bno085,0.1171875,0.05859375,9.6640625,-0.001953125,-0.00390625,0.001953125,0.0040283203125,-0.0068359375,0.00054931640625,0.99993896484375,-0.026745212771497662,0.6298952824244355,0.07443770757480639
75,3.0400574459999916,bno085,0.15625,0.09765625,9.62890625,-0.001953125,-0.00390625,0.001953125,0.0040283203125,-0.0068359375,0.0006103515625,0.99993896484375,-0.026620482627439025,0.629926655192142,0.08143180811725793
76,3.0800563269999657,bno085,0.1171875,0.09765625,9.62890625,0.0,0.001953125,0.0,0.0040283203125,-0.0068359375,0.0006103515625,0.99993896484375,-0.026620482627439025,0.629926655192142,0.08143180811725793
77,3.120057967999969,bno085,0.1171875,0.05859375,9.625,0.001953125,0.0,0.0,0.0040283203125,-0.0068359375,0.00054931640625,0.99993896484375,-0.026745212771497662,0.6298952824244355,0.07443770757480639
78,3.1600567389999696,bno085,0.15625,0.09765625,9.62890625,-0.00390625,-0.001953125,-0.001953125,0.0040283203125,-0.0068359375,0.00054931640625,0.99993896484375,-0.026745212771497662,0.6298952824244355,0.07443770757480639
79,3.2000566389999676,bno085,0.15625,0.09765625,9.66796875,0.001953125,0.001953125,0.001953125,0.00396728515625,-0.00689697265625,0.00054931640625,0.99993896484375,-0.03374170986142936,0.6229052030972269,0.07451740776438137
80,3.2400588730000663,bno085,0.15625,0.05859375,9.6640625,0.001953125,0.001953125,0.001953125,0.00396728515625,-0.0069580078125,0.0006103515625,0.99993896484375,-0.03362094574350522,0.6159426621412364,0.08154340748042584
81,3.280058347000022,bno085,0.1953125,0.05859375,9.66796875,0.00390625,0.001953125,0.001953125,0.0040283203125,-0.00689697265625,0.0006103515625,0.99993896484375,-0.026624020002145858,0.6229323228740598,0.08146329240997122
82,3.3200578030000543,bno085,0.1171875,0.05859375,9.6640625,0.0,0.005859375,0.001953125,0.0040283203125,-0.00677490234375,0.00067138671875,0.99993896484375,-0.02649178126692541,0.6369523275989606,0.08839443599526597
83,3.3600574250000363,bno085,0.1171875,0.05859375,9.625,0.00390625,0.001953125,0.00390625,0.0040283203125,-0.00677490234375,0.00067138671875,0.99993896484375,-0.02649178126692541,0.6369523275989606,0.08839443599526597
84,3.4000574919999735,bno085,0.1171875,0.05859375,9.625,-0.005859375,0.001953125,0.0,0.00408935546875,-0.00677490234375,0.00067138671875,0.99993896484375,-0.019498389943195714,0.6369472283970252,0.08834709035282405
85,3.440058725999961,bno085,0.1171875,0.05859375,9.625,-0.005859375,0.001953125,0.0,0.0040283203125,-0.00677490234375,0.00067138671875,0.99993896484375,-0.02649178126692541,0.6369523275989606,0.08839443599526597
86,3.4800552369999878,bno085,0.15625,0.05859375,9.625,0.0,0.001953125,0.0,0.0040283203125,-0.00677490234375,0.0006103515625,0.99993896484375,-0.02661694563980211,0.6369209758427175,0.08140032483467599
87,3.520058119000055,bno085,0.15625,0.05859375,9.625,0.0,0.0,0.0,0.0040283203125,-0.00677490234375,0.0006103515625,0.99993896484375,-0.02661694563980211,0.6369209758427175,0.08140032483467599
88,3.5600567230000024,bno085,0.1171875,0.05859375,9.625,0.0,0.0,0.0,0.0040283203125,-0.00677490234375,0.0006103515625,0.99993896484375,-0.02661694563980211,0.6369209758427175,0.08140032483467599
89,3.6000626969999985,bno085,0.1171875,0.05859375,9.625,0.0,0.0,0.0,0.0040283203125,-0.00677490234375,0.0006103515625,0.99993896484375,-0.02661694563980211,0.6369209758427175,0.08140032483467599
90,3.640059115999975,bno085,0.1171875,0.05859375,9.6640625,0.0,0.0,0.0,0.00396728515625,-0.00677490234375,0.0006103515625,0.99993896484375,-0.03361033004206096,0.6369256482761205,0.08144767410337679
91,3.6800594600000522,bno085,0.1171875,0.05859375,9.6640625,0.0,0.0,0.0,0.00396728515625,-0.00677490234375,0.0006103515625,0.99993896484375,-0.03361033004206096,0.6369256482761205,0.08144767410337679
92,3.7200588420000713,bno085,0.15625,0.09765625,9.66796875,0.0,0.0,0.0,0.00396728515625,-0.00677490234375,0.0006103515625,0.99993896484375,-0.03361033004206096,0.6369256482761205,0.08144767410337679
93,3.7600604640000483,bno085,0.1171875,0.05859375,9.625,0.0,0.0,0.0,0.00396728515625,-0.00677490234375,0.0006103515625,0.99993896484375,-0.03361033004206096,0.6369256482761205,0.08144767410337679
94,3.800058902000046,bno085,0.15625,0.05859375,9.625,0.0,0.0,0.0,0.00390625,-0.00677490234375,0.0006103515625,0.99993896484375,-0.040603707664849206,0.6369303207089124,0.0814950233721677
95,3.84005769099997,bno085,0.1171875,0.05859375,9.625,0.0,0.0,0.0,0.00390625,-0.00677490234375,0.0006103515625,0.99993896484375,-0.040603707664849206,0.6369303207089124,0.0814950233721677
96,3.8800565909999705,bno085,0.15625,0.05859375,9.6640625,0.0,0.0,0.0,0.00390625,-0.00677490234375,0.0006103515625,0.99993896484375,-0.040603707664849206,0.6369303207089124,0.0814950233721677
97,3.9200580469999977,bno085,0.1171875,0.05859375,9.625,0.0,0.0,0.0,0.00390625,-0.00677490234375,0.0006103515625,0.99993896484375,-0.040603707664849206,0.6369303207089124,0.0814950233721677
98,3.9600607989999617,bno085,0.15625,0.09765625,9.62890625,0.0,0.0,0.0,0.00390625,-0.00677490234375,0.0006103515625,0.99993896484375,-0.040603707664849206,0.6369303207089124,0.0814950233721677
99,4.00006031099997,bno085,0.15625,0.05859375,9.625,0.0,0.0,0.0,0.00384521484375,-0.00677490234375,0.0006103515625,0.99993896484375,-0.04759707861233468,0.6369349931411202,0.08154237264104863
100,4.040058673999965,bno085,0.1171875,0.05859375,9.6640625,0.0,0.0,0.0,0.00384521484375,-0.00677490234375,0.0006103515625,0.99993896484375,-0.04759707861233468,0.6369349931411202,0.08154237264104863
101,4.080057333000013,bno085,0.15625,0.09765625,9.66796875,0.0,0.0,0.0,0.00384521484375,-0.00677490234375,0.0006103515625,0.99993896484375,-0.04759707861233468,0.6369349931411202,0.08154237264104863
102,4.120058974000017,bno085,0.1171875,0.09765625,9.62890625,0.0,0.0,0.0,0.00384521484375,-0.00677490234375,0.0006103515625,0.99993896484375,-0.04759707861233468,0.6369349931411202,0.08154237264104863
103,4.160056023000038,bno085,0.15625,0.05859375,9.6640625,0.0,0.0,0.0,0.00384521484375,-0.00677490234375,0.0006103515625,0.99993896484375,-0.04759707861233468,0.6369349931411202,0.08154237264104863
104,4.200055460000044,bno085,0.1171875,0.09765625,9.62890625,0.0,0.0,0.0,0.00384521484375,-0.0068359375,0.0006103515625,0.99993896484375,-0.047600618864471776,0.6299406834139112,0.08157513642242133
105,4.240056175000063,bno085,0.1171875,0.05859375,9.625,0.0,0.0,0.0,0.0037841796875,-0.0068359375,0.0006103515625,0.99993896484375,-0.054593984328898205,0.6299453594866659,0.08162291252432248
106,4.280056057000024,bno085,0.15625,0.09765625,9.62890625,0.0,0.0,0.0,0.0037841796875,-0.0068359375,0.0006103515625,0.99993896484375,-0.054593984328898205,0.6299453594866659,0.08162291252432248
107,4.32005536500003,bno085,0.15625,0.09765625,9.66796875,0.0,0.0,0.0,0.00384521484375,-0.0068359375,0.0006103515625,0.99993896484375,-0.047600618864471776,0.6299406834139112,0.08157513642242133
108,4.360058154000058,bno085,0.15625,0.09765625,9.66796875,0.0,0.0,0.0,0.00384521484375,-0.0068359375,0.0006103515625,0.99993896484375,-0.047600618864471776,0.6299406834139112,0.08157513642242133
109,4.400055479999992,bno085,0.1171875,0.09765625,9.62890625,0.0,0.0,0.0,0.00384521484375,-0.0068359375,0.0006103515625,0.99993896484375,-0.047600618864471776,0.6299406834139112,0.08157513642242133
110,4.440056843999969,bno085,0.15625,0.05859375,9.6640625,0.0,0.0,0.0,0.00384521484375,-0.0068359375,0.0006103515625,0.99993896484375,-0.047600618864471776,0.6299406834139112,0.08157513642242133
111,4.480056466000065,bno085,0.1171875,0.09765625,9.66796875,0.0,0.0,0.0,0.00390625,-0.0068359375,0.0006103515625,0.99993896484375,-0.04060724682886496,0.6299360073405902,0.08152736032061014
112,4.5200563480000255,bno085,0.15625,0.09765625,9.66796875,0.0,0.0,0.0,0.00396728515625,-0.0068359375,0.0006103515625,0.99993896484375,-0.033613868117909826,0.6299313312666761,0.081479584218889
113,4.560055841000008,bno085,0.1171875,0.09765625,9.66796875,0.00390625,-0.001953125,0.0,0.00396728515625,-0.0068359375,0.0006103515625,0.99993896484375,-0.033613868117909826,0.6299313312666761,0.081479584218889
114,4.600057426000035,bno085,0.15625,0.05859375,9.625,0.00390625,-0.00390625,0.0,0.0040283203125,-0.00689697265625,0.0006103515625,0.99993896484375,-0.026624020002145858,0.6229323228740598,0.08146329240997122
115,4.6400566780000645,bno085,0.08203125,0.09765625,9.625,0.00390625,-0.00390625,0.0,0.0040283203125,-0.00701904296875,0.0006103515625,0.99993896484375,-0.02663109591339546,0.6089436228186981,0.08152626403140399
116,4.680057986000065,bno085,0.15625,0.05859375,9.6640625,0.001953125,-0.01171875,-0.001953125,0.004150390625,-0.00726318359375,0.0006103515625,0.99993896484375,-0.012658439581672648,0.5809566749848935,0.08155069161576665
117,4.72005781200005,bno085,0.15625,0.05859375,9.6640625,-0.001953125,-0.0078125,-0.001953125,0.004150390625,-0.007568359375,0.00054931640625,0.99993896484375,-0.012795729833173215,0.5459539092082952,0.07470988790102676
118,4.760057231000019,bno085,0.234375,0.09765625,9.62890625,0.0,-0.041015625,0.001953125,0.004150390625,-0.007568359375,0.00054931640625,0.99993896484375,-0.012795729833173215,0.5459539092082952,0.07470988790102676
119,4.800058908999972,bno085,0.15625,0.05859375,9.625,-0.001953125,-0.0390625,0.0,0.004150390625,-0.00836181640625,0.00054931640625,0.99993896484375,-0.012836177422285261,0.45502452357503215,0.07510842275912114
120,4.84005769800001,bno085,0.00390625,0.05859375,9.66796875,-0.001953125,-0.0390625,0.0,0.004150390625,-0.00921630859375,0.00048828125,0.99993896484375,-0.012987845974280252,0.3570673268254439,0.06854397215498152
121,4.880055488000039,bno085,0.234375,0.05859375,9.6640625,0.00390625,-0.080078125,-0.001953125,0.0042724609375,-0.01116943359375,0.00048828125,0.99993896484375,0.0009135370774101718,0.13321476753768557,0.06937004031660372
122,4.9200554070000635,bno085,0.5,0.05859375,9.6640625,0.0,-0.09375,0.001953125,0.0042724609375,-0.013427734375,0.000732421875,0.9998779296875,0.0010990393756279179,-0.12541769172757875,0.09844424149098657
123,4.9600553070000615,bno085,0.15625,0.09765625,9.62890625,0.00390625,-0.078125,0.001953125,0.0042724609375,-0.013427734375,0.000732421875,0.9998779296875,0.0010990393756279179,-0.12541769172757875,0.09844424149098657
124,5.000057207000054,bno085,0.34765625,0.05859375,9.62890625,-0.00390625,-0.0625,-0.00390625,0.00433349609375,-0.01507568359375,0.0008544921875,0.9998779296875,0.008109036573814747,-0.3142601995382316,0.1131332324786236
125,5.040057367000031,bno085,0.234375,0.09765625,9.62890625,-0.00390625,-0.0625,-0.00390625,0.00433349609375,-0.0166015625,0.00079345703125,0.9998779296875,0.007922064630996335,-0.48920871238678637,0.10687804185406506
126,5.080057693000072,bno085,0.15625,0.05859375,9.625,0.001953125,-0.076171875,-0.00390625,0.00433349609375,-0.01837158203125,0.0006103515625,0.99981689453125,0.007620501806967667,-0.6920966745492557,0.0867488377808045
127,5.120057797000072,bno085,0.234375,0.05859375,9.625,0.009765625,-0.12890625,-0.01953125,0.0045166015625,-0.02142333984375,0.000244140625,0.999755859375,0.02826486917686372,-1.042050858219611,0.04581180975925429
128,5.160057660999996,bno085,0.5390625,0.09765625,9.62890625,0.00390625,-0.169921875,-0.013671875,0.00457763671875,-0.025390625,-0.0003662109375,0.99969482421875,0.03522604854810074,-1.4971606824489252,-0.02247555900112593
129,5.2000571170000285,bno085,0.2734375,0.09765625,9.62890625,0.005859375,-0.201171875,0.0,0.00457763671875,-0.025390625,-0.0003662109375,0.99969482421875,0.03522604854810074,-1.4971606824489252,-0.02247555900112593
130,5.240054571999963,bno085,0.578125,0.05859375,9.5859375,0.005859375,-0.201171875,0.0,0.004638671875,-0.03021240234375,-0.00054931640625,0.99951171875,0.04252088468482363,-2.0498330244428513,-0.041487837734770404
131,5.280060047000006,bno085,0.76953125,0.09765625,9.62890625,0.009765625,-0.205078125,0.009765625,0.0048828125,-0.03521728515625,-0.0003662109375,0.9993896484375,0.07063822200297745,-2.623725650365219,-0.019259476096519564
132,5.320058335999988,bno085,0.8828125,0.13671875,9.62890625,0.015625,-0.173828125,-0.0078125,0.0052490234375,-0.03985595703125,-0.00048828125,0.99920654296875,0.11306679688139916,-3.155666539133257,-0.03299893768903327
133,5.360059718000002,bno085,0.8828125,0.17578125,9.625,0.001953125,-0.169921875,-0.001953125,0.0052490234375,-0.03985595703125,-0.00048828125,0.99920654296875,0.11306679688139916,-3.155666539133257,-0.03299893768903327
134,5.400057951999997,bno085,0.84765625,0.13671875,9.5859375,0.001953125,-0.185546875,0.001953125,0.00543212890625,-0.0439453125,-0.00054931640625,0.9990234375,0.13445829852414343,-3.6246500741749403,-0.03939772838698125
135,5.440061630000059,bno085,0.9609375,0.05859375,9.5859375,0.009765625,-0.19921875,0.00390625,0.0054931640625,-0.04833984375,-0.0006103515625,0.99884033203125,0.14194645843948508,-4.128893528031617,-0.045199327821289784
136,5.480057456000054,bno085,0.921875,0.05859375,9.58984375,0.009765625,-0.19921875,0.00390625,0.00567626953125,-0.05322265625,-0.00048828125,0.99859619140625,0.16296288440864956,-4.689138261993578,-0.03063262094323299
137,5.5200583380000126,bno085,1.07421875,0.05859375,9.546875,0.015625,-0.236328125,0.001953125,0.0059814453125,-0.05908203125,-0.00048828125,0.99822998046875,0.1984210517557067,-5.361405963388299,-0.030822449618573996
138,5.560057516000029,bno085,1.0,0.05859375,9.55078125,0.01953125,-0.30078125,0.0,0.0059814453125,-0.05908203125,-0.00048828125,0.99822998046875,0.1984210517557067,-5.361405963388299,-0.030822449618573996
139,5.600059213000009,bno085,1.23046875,0.09765625,9.5078125,0.025390625,-0.376953125,-0.009765625,0.0064697265625,-0.0662841796875,-0.00048828125,0.997802734375,0.25518112821049127,-6.188525550505464,-0.03249865712832573
140,5.640057038999998,bno085,1.421875,0.17578125,9.51171875,0.025390625,-0.376953125,-0.009765625,0.0069580078125,-0.07525634765625,-0.00067138671875,0.99713134765625,0.3132941066189731,-7.219013871818227,-0.055800203121737765
141,5.680058365000036,bno085,1.53515625,0.0234375,9.46875,-0.001953125,-0.41796875,-0.013671875,0.0072021484375,-0.08544921875,-0.000732421875,0.996337890625,0.3431906241359196,-8.391097198328932,-0.06360130700992088
142,5.720059709999987,bno085,1.87890625,0.17578125,9.43359375,0.02734375,-0.38671875,0.001953125,0.00762939453125,-0.09527587890625,-0.00140380859375,0.99542236328125,0.3995738818414415,-9.521620665931952,-0.14472141114842543
143,5.760059055000056,bno085,2.109375,-0.0546875,9.39453125,0.02734375,-0.361328125,0.00390625,0.00762939453125,-0.09527587890625,-0.00140380859375,0.99542236328125,0.3995738818414415,-9.521620665931952,-0.14472141114842543
144,5.800059678000025,bno085,2.41796875,0.2890625,9.39453125,-0.001953125,-0.283203125,-0.01171875,0.00830078125,-0.104248046875,-0.00146484375,0.9945068359375,0.4802899100140487,-10.554686335523323,-0.15947364426472738
145,5.840057281999975,bno085,2.1484375,0.21484375,9.39453125,-0.001953125,-0.283203125,-0.01171875,0.00860595703125,-0.11187744140625,-0.0018310546875,0.99371337890625,0.521734283499313,-11.434520354225027,-0.20629007744581498
146,5.880058051999981,bno085,2.45703125,0.25,9.3125,0.017578125,-0.265625,-0.0078125,0.009033203125,-0.11859130859375,-0.001953125,0.992919921875,0.5752473680234932,-12.20880988460409,-0.22706408095645306
147,5.920058026999982,bno085,2.37890625,0.21484375,9.31640625,0.009765625,-0.236328125,-0.0078125,0.00927734375,-0.12451171875,-0.002197265625,0.9921875,0.6089489094634214,-12.892167195225332,-0.26004581485001405
148,5.9600588719999905,bno085,2.45703125,0.13671875,9.31640625,0.0078125,-0.23046875,0.001953125,0.00927734375,-0.12451171875,-0.002197265625,0.9921875,0.6089489094634214,-12.892167195225332,-0.26004581485001405
149,6.000059661000023,bno085,2.609375,0.17578125,9.28515625,0.0234375,-0.1953125,0.01953125,0.009521484375,-0.13018798828125,-0.00225830078125,0.991455078125,0.6407960475788045,-13.54787313708446,-0.27208885354728113
150,6.040059487000008,bno085,2.609375,0.17578125,9.24609375,0.0234375,-0.1953125,0.01953125,0.00994873046875,-0.13531494140625,-0.001953125,0.99078369140625,0.6893786705579064,-14.14084800135329,-0.24445206034091288
151,6.080059221000056,bno085,2.72265625,0.17578125,9.2421875,0.0,-0.208984375,-0.037109375,0.0101318359375,-0.140380859375,-0.0023193359375,0.99005126953125,0.7182402758525653,-14.726458392368214,-0.2919490611209248
152,6.120057918000043,bno085,2.875,0.17578125,9.20703125,0.0078125,-0.197265625,-0.001953125,0.01043701171875,-0.145263671875,-0.0023193359375,0.98931884765625,0.756750232001785,-15.291295951920299,-0.29888677490571447
153,6.160059744000023,bno085,2.9921875,0.21484375,9.203125,0.001953125,-0.181640625,-0.001953125,0.01043701171875,-0.145263671875,-0.0023193359375,0.98931884765625,0.756750232001785,-15.291295951920299,-0.29888677490571447
154,6.200057904000005,bno085,2.9140625,0.21484375,9.1640625,0.005859375,-0.173828125,-0.00390625,0.0106201171875,-0.14959716796875,-0.002197265625,0.98870849609375,0.7789897564213908,-15.793940273179834,-0.289472079534076
155,6.240057842000056,bno085,2.875,0.17578125,9.16796875,0.005859375,-0.173828125,-0.00390625,0.0108642578125,-0.15386962890625,-0.00238037109375,0.988037109375,0.8130731028237037,-16.288925890245498,-0.3173344037108247
156,6.280059464000033,bno085,3.06640625,0.21484375,9.12890625,0.0078125,-0.17578125,0.0,0.01104736328125,-0.158203125,-0.00244140625,0.98736572265625,0.8384017781767406,-16.79184605489228,-0.33003819254577804
157,6.32005971600006,bno085,3.14453125,0.21484375,9.0859375,0.013671875,-0.17578125,0.00390625,0.0113525390625,-0.16253662109375,-0.00238037109375,0.98663330078125,0.8763771119657159,-17.294419061715644,-0.3309403802297254
158,6.360062783999979,bno085,3.06640625,0.25,9.0859375,0.01171875,-0.189453125,-0.0078125,0.0113525390625,-0.16253662109375,-0.00238037109375,0.98663330078125,0.8763771119657159,-17.294419061715644,-0.3309403802297254
159,6.400059036000016,bno085,3.2578125,0.25,9.046875,0.005859375,-0.232421875,-0.00390625,0.01116943359375,-0.164306640625,-0.00250244140625,0.986328125,0.8577798052126903,-17.499782290888596,-0.3427598468215274
160,6.440057288000048,bno085,3.3359375,0.328125,9.01171875,0.005859375,-0.232421875,-0.00390625,0.0111083984375,-0.16790771484375,-0.0025634765625,0.9857177734375,0.8539507215613513,-17.918159096595762,-0.3507012667649475
161,6.480057170000009,bno085,3.375,0.17578125,9.01171875,0.02734375,-0.240234375,0.01171875,0.0113525390625,-0.173095703125,-0.00262451171875,0.98486328125,0.8878342514288144,-18.522221172366127,-0.36589117158118417
162,6.520057163000047,bno085,3.4140625,0.2890625,8.97265625,0.005859375,-0.25390625,-0.01171875,0.01165771484375,-0.17889404296875,-0.00286865234375,0.9837646484375,0.9331246020401148,-19.195869248669503,-0.40508926497776765
163,6.5600568600000315,bno085,3.60546875,0.21484375,8.9296875,0.01171875,-0.251953125,0.009765625,0.01190185546875,-0.18475341796875,-0.002685546875,0.98272705078125,0.9636564676443206,-19.8795895680958,-0.3925667666617725
164,6.600058130999969,bno085,3.91015625,0.25,8.86328125,0.01171875,-0.208984375,-0.009765625,0.01190185546875,-0.18475341796875,-0.002685546875,0.98272705078125,0.9636564676443206,-19.8795895680958,-0.3925667666617725
165,6.640058457000009,bno085,3.8359375,0.17578125,8.86328125,0.017578125,-0.193359375,0.005859375,0.01220703125,-0.18994140625,-0.00286865234375,0.981689453125,1.0083283854719578,-20.483694475841535,-0.4252961588417273
166,6.680059949999986,bno085,3.94921875,0.17578125,8.82421875,0.017578125,-0.193359375,0.005859375,0.012451171875,-0.19464111328125,-0.0028076171875,0.98077392578125,1.0407248892519665,-21.03255238163708,-0.42742449114747
167,6.72005857299996,bno085,4.02734375,0.25,8.78515625,0.00390625,-0.162109375,0.001953125,0.0125732421875,-0.1986083984375,-0.0028076171875,0.97998046875,1.059126769161634,-21.496224847524978,-0.43366450417935193
168,6.760057732000064,bno085,4.02734375,0.25,8.78515625,0.01171875,-0.134765625,-0.001953125,0.01275634765625,-0.201904296875,-0.0028076171875,0.97930908203125,1.0844539192767173,-21.88171567898902,-0.44103306910847395
169,6.800057892000041,bno085,3.91015625,0.2890625,8.74609375,0.013671875,-0.14453125,0.009765625,0.01275634765625,-0.201904296875,-0.0028076171875,0.97930908203125,1.0844539192767173,-21.88171567898902,-0.44103306910847395
170,6.840057162999983,bno085,3.91015625,0.25,8.74609375,0.013671875,-0.173828125,-0.00390625,0.01300048828125,-0.205322265625,-0.0028076171875,0.97857666015625,1.1174420287596294,-22.28124223786253,-0.45027695488563757
171,6.880057803999989,bno085,3.91015625,0.2890625,8.70703125,0.013671875,-0.173828125,-0.00390625,0.01336669921875,-0.2093505859375,-0.00274658203125,0.97772216796875,1.1647820922745207,-22.753037394970708,-0.45616929495497843
172,6.920056630999966,bno085,3.87109375,0.2890625,8.66796875,0.015625,-0.240234375,-0.013671875,0.0137939453125,-0.2149658203125,-0.00286865234375,0.97650146484375,1.2259248155311144,-23.411256175625578,-0.4881796941820974
173,6.960058271999969,bno085,4.1796875,0.328125,8.5859375,0.0078125,-0.279296875,-0.00390625,0.01416015625,-0.22174072265625,-0.00299072265625,0.9749755859375,1.281706989684609,-24.20636755241828,-0.5208386355866099
174,7.000057561000062,bno085,4.33203125,0.48046875,8.5859375,-0.01171875,-0.322265625,0.0,0.01416015625,-0.22174072265625,-0.00299072265625,0.9749755859375,1.281706989684609,-24.20636755241828,-0.5208386355866099
175,7.040058349999981,bno085,4.79296875,0.17578125,8.51171875,0.02734375,-0.26171875,0.0,0.01422119140625,-0.229248046875,-0.003173828125,0.9732666015625,1.303245619937093,-25.089853201394703,-0.5542275741654564
176,7.080058288000032,bno085,4.41015625,0.21484375,8.48046875,0.02734375,-0.26171875,0.0,0.0146484375,-0.23577880859375,-0.00323486328125,0.9716796875,1.3665204756580531,-25.858508655217197,-0.5828944477656357
177,7.120058392000033,bno085,4.71484375,0.40625,8.36328125,0.025390625,-0.314453125,-0.01171875,0.015380859375,-0.24334716796875,-0.00347900390625,0.96978759765625,1.4756530432136852,-26.7507185050504,-0.6466083581884395
178,7.16005832999997,bno085,4.83203125,0.40625,8.3203125,0.005859375,-0.31640625,0.0078125,0.01556396484375,-0.25103759765625,-0.0035400390625,0.96783447265625,1.5125918704480994,-27.660227979004333,-0.6722839994361964
179,7.200057433999973,bno085,4.83203125,0.25,8.28515625,0.017578125,-0.291015625,-0.00390625,0.01556396484375,-0.25103759765625,-0.0035400390625,0.96783447265625,1.5125918704480994,-27.660227979004333,-0.6722839994361964
180,7.240059168000016,bno085,5.40625,0.328125,8.1640625,0.015625,-0.201171875,0.0,0.01593017578125,-0.25823974609375,-0.00372314453125,0.9659423828125,1.5765734108474678,-28.513404434318748,-0.7196363527535521
181,7.280061586999977,bno085,5.2890625,0.3671875,8.1640625,0.015625,-0.201171875,0.0,0.0162353515625,-0.26336669921875,-0.0037841796875,0.96453857421875,1.6264649669442146,-29.121258332438103,-0.7470584703540886
182,7.320059227999991,bno085,4.984375,0.328125,8.1640625,0.0078125,-0.158203125,0.0,0.0164794921875,-0.26727294921875,-0.0037841796875,0.9635009765625,1.665057871918308,-29.58636117546412,-0.7630146671050656
183,7.360058480000021,bno085,5.328125,0.328125,8.09765625,0.015625,-0.130859375,0.00390625,0.0167236328125,-0.27081298828125,-0.0037841796875,0.96246337890625,1.7031155544176637,-30.006133359098985,-0.7786778012483466
184,7.400056788000029,bno085,4.90625,0.40625,8.09765625,-0.001953125,-0.185546875,-0.001953125,0.0167236328125,-0.27081298828125,-0.0037841796875,0.96246337890625,1.7031155544176637,-30.006133359098985,-0.7786778012483466
185,7.440058633000035,bno085,4.984375,0.2890625,8.0546875,0.025390625,-0.228515625,-0.00390625,0.016845703125,-0.27520751953125,-0.00384521484375,0.96124267578125,1.7297407819185542,-30.5301194911745,-0.7998949825157534
186,7.48005696000007,bno085,5.55859375,0.44140625,7.98046875,0.025390625,-0.228515625,-0.00390625,0.01702880859375,-0.28082275390625,-0.0040283203125,0.9595947265625,1.7714014054401699,-31.19900179540865,-0.8421651379117588
187,7.520057878999978,bno085,5.75,0.3671875,7.9375,0.0078125,-0.19921875,-0.001953125,0.01727294921875,-0.28558349609375,-0.004150390625,0.95819091796875,1.8179378573681764,-31.767553235077322,-0.8778793419383516
188,7.560057890000053,bno085,5.7890625,0.3671875,7.90234375,0.005859375,-0.111328125,0.0,0.01739501953125,-0.2884521484375,-0.00408935546875,0.95733642578125,1.8382769421745055,-32.11082688675083,-0.881381614467699
189,7.6000603280000405,bno085,5.90234375,0.3671875,7.90234375,0.00390625,-0.009765625,0.0,0.01739501953125,-0.2884521484375,-0.00408935546875,0.95733642578125,1.8382769421745055,-32.11082688675083,-0.881381614467699
190,7.640059247000067,bno085,5.75,0.3671875,7.90234375,0.001953125,0.05859375,0.00390625,0.01751708984375,-0.2890625,-0.00408935546875,0.9571533203125,1.8556382412552397,-32.18384360505701,-0.8875932743719549
191,7.680061814000055,bno085,5.59765625,0.3671875,7.8984375,0.001953125,0.05859375,0.00390625,0.01751708984375,-0.2879638671875,-0.0040283203125,0.95745849609375,1.8508338055476503,-32.05174491812747,-0.8770825456778153
192,7.720060918000058,bno085,5.55859375,0.328125,7.9375,-0.005859375,0.08984375,-0.001953125,0.01739501953125,-0.285888671875,-0.0040283203125,0.9581298828125,1.8302781615378718,-31.804960975313794,-0.8675213730917286
193,7.760057985000003,bno085,5.2890625,0.328125,7.9765625,-0.01171875,0.115234375,0.0,0.01715087890625,-0.28326416015625,-0.0040283203125,0.9588623046875,1.7925444945147817,-31.490114184649368,-0.852189935225958
194,7.800058034000017,bno085,5.328125,0.328125,7.9765625,-0.00390625,0.099609375,0.0,0.01715087890625,-0.28326416015625,-0.0040283203125,0.9588623046875,1.7925444945147817,-31.490114184649368,-0.852189935225958
195,7.840059064000002,bno085,5.21484375,0.328125,8.01953125,-0.0078125,0.0625,0.00390625,0.01702880859375,-0.281005859375,-0.0040283203125,0.95953369140625,1.77178195444458,-31.220659957399523,-0.8425651314900723
196,7.880059261000042,bno085,5.21484375,0.328125,8.01953125,-0.0078125,0.0625,0.00390625,0.01690673828125,-0.27960205078125,-0.00396728515625,0.9599609375,1.75090448586434,-31.05368987423263,-0.8270952958538126
197,7.9200570499999685,bno085,5.13671875,0.328125,8.01953125,-0.001953125,0.01953125,0.0,0.016845703125,-0.2791748046875,-0.00390625,0.9600830078125,1.7400145087275616,-31.00274213919302,-0.8160639754350296
198,7.96005672900003,bno085,5.13671875,0.328125,8.01953125,0.00390625,-0.0390625,-0.001953125,0.01690673828125,-0.2801513671875,-0.00396728515625,0.95977783203125,1.7520242471089569,-31.118627914927732,-0.8282734141557441
199,8.000059777000047,bno085,5.17578125,0.328125,8.015625,0.001953125,-0.078125,-0.00390625,0.01690673828125,-0.2801513671875,-0.00396728515625,0.95977783203125,1.7520242471089569,-31.118627914927732,-0.8282734141557441
200,8.040057493000063,bno085,5.40625,0.328125,7.9765625,-0.00390625,-0.05859375,0.0,0.01690673828125,-0.2821044921875,-0.00421142578125,0.959228515625,1.764728727909568,-31.352141855485772,-0.8639353102862645
201,8.08005743000001,bno085,5.44140625,0.328125,7.98046875,-0.00390625,-0.05859375,0.0,0.01690673828125,-0.28369140625,-0.00421142578125,0.958740234375,1.7681889880863624,-31.541156509463942,-0.8674429722746299
202,8.120057831000054,bno085,5.328125,0.328125,7.9375,-0.005859375,-0.052734375,0.001953125,0.0169677734375,-0.28509521484375,-0.00421142578125,0.95831298828125,1.7792286072010044,-31.70860262127559,-0.87291285500703
203,8.16005713900006,bno085,5.328125,0.328125,7.9375,0.00390625,-0.0546875,0.0,0.01708984375,-0.28656005859375,-0.00421142578125,0.9578857421875,1.798448646419297,-31.883953542793815,-0.8809384417881515
204,8.200059317000068,bno085,5.25,0.328125,7.90234375,0.005859375,-0.09375,-0.001953125,0.01708984375,-0.28656005859375,-0.00421142578125,0.9578857421875,1.798448646419297,-31.883953542793815,-0.8809384417881515
205,8.24005734800005,bno085,5.328125,0.328125,7.90234375,0.005859375,-0.1328125,0.0,0.01715087890625,-0.28875732421875,-0.00421142578125,0.95721435546875,1.8114197792907716,-32.14647153051115,-0.8883675261645884
206,8.280054803999974,bno085,5.3671875,0.328125,7.86328125,0.005859375,-0.1328125,0.0,0.017333984375,-0.2919921875,-0.00421142578125,0.95623779296875,1.8429529760297612,-32.53384597256328,-0.9031967393218527
207,8.32005709300006,bno085,5.6328125,0.3671875,7.8203125,0.015625,-0.171875,0.0078125,0.017578125,-0.29608154296875,-0.00421142578125,0.95501708984375,1.8849757567446497,-33.024975657033686,-0.922950754663609
208,8.360057457000039,bno085,5.671875,0.40625,7.82421875,0.01171875,-0.158203125,-0.001953125,0.017822265625,-0.2999267578125,-0.0042724609375,0.95379638671875,1.9290572070837357,-33.4857390743641,-0.9506412569176493
209,8.40005720900001,bno085,5.98046875,0.40625,7.7421875,0.00390625,-0.091796875,-0.00390625,0.017822265625,-0.2999267578125,-0.0042724609375,0.95379638671875,1.9290572070837357,-33.4857390743641,-0.9506412569176493
210,8.440058721000014,bno085,6.0546875,0.3671875,7.7421875,0.00390625,0.017578125,0.0078125,0.0179443359375,-0.302490234375,-0.00433349609375,0.9530029296875,1.9542183538706206,-33.79406290822488,-0.9704237655966271
211,8.480058899000028,bno085,5.75,0.51953125,7.78515625,0.00390625,0.017578125,0.0078125,0.01800537109375,-0.30242919921875,-0.00408935546875,0.9530029296875,1.9527119764658183,-33.78648795853627,-0.9407191232798725
212,8.520058243999983,bno085,5.48046875,0.328125,7.78125,0.001953125,0.052734375,0.00390625,0.01800537109375,-0.30126953125,-0.0040283203125,0.953369140625,1.9473900260628392,-33.64717953829382,-0.929671266660658
213,8.560059534000061,bno085,5.44140625,0.328125,7.78125,0.0,0.0,-0.00390625,0.01788330078125,-0.3011474609375,-0.004150390625,0.953369140625,1.9354990465365407,-33.631312645860405,-0.9403065998848473
214,8.60006037900007,bno085,5.55859375,0.3671875,7.74609375,-0.0078125,-0.01953125,-0.001953125,0.01788330078125,-0.3011474609375,-0.004150390625,0.953369140625,1.9354990465365407,-33.631312645860405,-0.9403065998848473
215,8.640058371999999,bno085,5.48046875,0.3671875,7.78125,-0.00390625,-0.064453125,-0.00390625,0.017822265625,-0.3016357421875,-0.00421142578125,0.9532470703125,1.9310869484962927,-33.69083951654485,-0.9470600472161426
216,8.680058569000039,bno085,5.48046875,0.44140625,7.74609375,-0.00390625,-0.064453125,-0.00390625,0.017822265625,-0.30316162109375,-0.0042724609375,0.9527587890625,1.937368854397223,-33.87404637106901,-0.9590637818706543
217,8.720057802000042,bno085,5.7109375,0.21484375,7.7421875,0.00390625,-0.103515625,-0.001953125,0.01788330078125,-0.3055419921875,-0.0045166015625,0.9520263671875,1.9613177751526463,-34.160781878011775,-1.0001282438738008
218,8.760058962000016,bno085,5.51953125,0.3671875,7.7109375,0.0078125,-0.115234375,0.0,0.0179443359375,-0.30816650390625,-0.0045166015625,0.951171875,1.97655236478067,-34.47644666167139,-1.0098779659706976
219,8.800059510999972,bno085,5.75,0.3671875,7.67578125,0.0,-0.142578125,-0.00390625,0.0179443359375,-0.30816650390625,-0.0045166015625,0.951171875,1.97655236478067,-34.47644666167139,-1.0098779659706976
220,8.840057430000002,bno085,5.86328125,0.3671875,7.67578125,0.001953125,-0.1328125,-0.0078125,0.01806640625,-0.3116455078125,-0.00469970703125,0.95001220703125,2.009821936246893,-34.89461166137966,-1.0491391218670905
221,8.880057553000029,bno085,5.86328125,0.3671875,7.6328125,0.001953125,-0.1328125,-0.0078125,0.0181884765625,-0.31488037109375,-0.0048828125,0.94891357421875,2.0429251160016944,-35.283617107845096,-1.088209878468577
222,8.920060657000022,bno085,5.94140625,0.40625,7.59765625,0.00390625,-0.1015625,0.0,0.01837158203125,-0.3175048828125,-0.00482177734375,0.94805908203125,2.0729319415493697,-35.60112193665685,-1.0960387710418147
223,8.960059150000006,bno085,5.86328125,0.3671875,7.55859375,0.005859375,-0.107421875,-0.001953125,0.01849365234375,-0.31951904296875,-0.0048828125,0.9473876953125,2.0980931710106168,-35.84454348001045,-1.1158326403621406
224,9.000057032999962,bno085,5.86328125,0.3671875,7.55859375,0.00390625,-0.134765625,-0.00390625,0.01849365234375,-0.31951904296875,-0.0048828125,0.9473876953125,2.0980931710106168,-35.84454348001045,-1.1158326403621406
225,9.040057210999976,bno085,5.90234375,0.3671875,7.4765625,0.0078125,-0.1640625,0.0,0.0185546875,-0.322265625,-0.00494384765625,0.94647216796875,2.117513226055944,-36.17708270889843,-1.1353516338061111
226,9.080057334000003,bno085,6.0546875,0.328125,7.48046875,0.0078125,-0.1640625,0.0,0.01885986328125,-0.32574462890625,-0.00482177734375,0.94525146484375,2.164770420351242,-36.597520034915114,-1.1441028031708325
227,9.120066068000028,bno085,6.24609375,0.51953125,7.40234375,0.03125,-0.142578125,0.001953125,0.0194091796875,-0.3291015625,-0.0047607421875,0.944091796875,2.2481535519273637,-37.00438776922044,-1.1727711183299787
228,9.160055968000052,bno085,6.171875,0.55859375,7.3984375,0.0390625,-0.158203125,0.017578125,0.01922607421875,-0.33258056640625,-0.00531005859375,0.94287109375,2.2593766330671388,-37.42589923740325,-1.2507184018382695
229,9.200057294999965,bno085,6.01953125,0.3671875,7.3203125,0.001953125,-0.18359375,-0.0078125,0.01922607421875,-0.33258056640625,-0.00531005859375,0.94287109375,2.2593766330671388,-37.42589923740325,-1.2507184018382695
230,9.240057529000069,bno085,6.28515625,0.2890625,7.2890625,0.015625,-0.177734375,0.0,0.01922607421875,-0.3369140625,-0.005615234375,0.94134521484375,2.2888046369951107,-37.95261910941578,-1.307943714341156
231,9.280057892000059,bno085,6.2109375,0.44140625,7.25390625,0.015625,-0.177734375,0.0,0.01959228515625,-0.3411865234375,-0.0054931640625,0.93975830078125,2.349779616466455,-38.47138461931277,-1.325246227672054
232,9.320056071000067,bno085,6.515625,0.3671875,7.21484375,0.01171875,-0.1953125,-0.0078125,0.0198974609375,-0.345703125,-0.005615234375,0.9381103515625,2.415680592185064,-39.02192834930911,-1.3751141801617
233,9.360058842000058,bno085,6.4765625,0.40625,7.17578125,0.017578125,-0.166015625,0.0,0.02032470703125,-0.3497314453125,-0.0054931640625,0.93658447265625,2.485991367831883,-39.51299257261205,-1.3965856924599345
234,9.400057779999997,bno085,6.66796875,0.48046875,7.0546875,0.025390625,-0.119140625,0.01171875,0.02032470703125,-0.3497314453125,-0.0054931640625,0.93658447265625,2.485991367831883,-39.51299257261205,-1.3965856924599345
235,9.440058495000017,bno085,6.40234375,0.44140625,7.09765625,0.001953125,-0.115234375,-0.001953125,0.020751953125,-0.35272216796875,-0.0054931640625,0.93548583984375,2.5588501661459153,-39.87922334505962,-1.4316480057562866
236,9.48005759900002,bno085,6.4765625,0.40625,7.05859375,0.001953125,-0.115234375,-0.001953125,0.02093505859375,-0.35552978515625,-0.00555419921875,0.9344482421875,2.6000987060231036,-40.22360154595194,-1.4622541677549157
237,9.520058185000039,bno085,6.70703125,0.40625,7.01953125,-0.001953125,-0.11328125,-0.001953125,0.02099609375,-0.35833740234375,-0.00567626953125,0.933349609375,2.6274111368641586,-40.56678542258959,-1.4953537676133326
238,9.560057788999984,bno085,6.70703125,0.40625,6.9765625,0.00390625,-0.078125,-0.001953125,0.0211181640625,-0.3603515625,-0.0057373046875,0.93255615234375,2.6570943010090984,-40.81321980947016,-1.5198809311629933
239,9.600060485999961,bno085,6.5546875,0.44140625,6.9765625,0.009765625,-0.060546875,0.0,0.0211181640625,-0.3603515625,-0.0057373046875,0.93255615234375,2.6570943010090984,-40.81321980947016,-1.5198809311629933
240,9.640059906000033,bno085,6.5546875,0.44140625,6.9765625,0.005859375,-0.07421875,-0.00390625,0.02130126953125,-0.36187744140625,-0.0057373046875,0.93194580078125,2.6903235184478285,-40.99987379936601,-1.5370798130550396
241,9.680058787999997,bno085,6.5546875,0.40625,6.94140625,0.005859375,-0.07421875,-0.00390625,0.02142333984375,-0.363525390625,-0.00579833984375,0.93133544921875,2.7188986856970803,-41.20312045436362,-1.560371978246343
242,9.72005931800004,bno085,6.66796875,0.44140625,6.91015625,0.00390625,-0.109375,-0.005859375,0.0216064453125,-0.365966796875,-0.00592041015625,0.93035888671875,2.7634027895118134,-41.502377314368516,-1.5998887760243952
243,9.76005675600004,bno085,6.5546875,0.40625,6.91015625,-0.005859375,-0.125,0.0,0.0216064453125,-0.3687744140625,-0.0059814453125,0.92926025390625,2.780701848413312,-41.84830911445722,-1.6227092952336268
244,9.800058970999999,bno085,6.62890625,0.44140625,6.83203125,0.01171875,-0.154296875,0.0,0.0216064453125,-0.3687744140625,-0.0059814453125,0.92926025390625,2.780701848413312,-41.84830911445722,-1.6227092952336268
245,9.84005761200001,bno085,6.82421875,0.44140625,6.7890625,0.00390625,-0.166015625,0.001953125,0.02191162109375,-0.3724365234375,-0.005859375,0.92779541015625,2.837125809417269,-42.29975035686465,-1.6415323047401815
246,9.880058217000055,bno085,6.78125,0.44140625,6.75,0.00390625,-0.166015625,0.001953125,0.0220947265625,-0.3763427734375,-0.005859375,0.92620849609375,2.884424880412282,-42.781735517456426,-1.6729637415610195
247,9.92005804300004,bno085,6.74609375,0.48046875,6.71484375,0.013671875,-0.181640625,-0.001953125,0.02239990234375,-0.380615234375,-0.00579833984375,0.9244384765625,2.949078400060406,-43.30948389427258,-1.7057344853022778
248,9.96005707400002,bno085,7.20703125,0.48046875,6.63671875,0.005859375,-0.169921875,0.0,0.0225830078125,-0.384765625,-0.00592041015625,0.9227294921875,3.0066836861370216,-43.823783596017115,-1.7583975342239617
249,10.000057751999975,bno085,7.20703125,0.48046875,6.63671875,0.0078125,-0.099609375,-0.001953125,0.0225830078125,-0.384765625,-0.00592041015625,0.9227294921875,3.0066836861370216,-43.823783596017115,-1.7583975342239617
250,10.040056949000018,bno085,7.28515625,0.48046875,6.59765625,-0.00390625,-0.01953125,-0.001953125,0.02276611328125,-0.3873291015625,-0.00592041015625,0.921630859375,3.048823772656484,-44.14101585543337,-1.7847776465251086
251,10.080057665000027,bno085,7.28515625,0.44140625,6.59765625,-0.00390625,-0.01953125,-0.001953125,0.0228271484375,-0.38812255859375,-0.0059814453125,0.9212646484375,3.066090267044738,-44.23836125180397,-1.8023015657422794
252,10.120058749999998,bno085,6.9375,0.44140625,6.59765625,0.001953125,0.037109375,0.00390625,0.02276611328125,-0.38751220703125,-0.00592041015625,0.92156982421875,3.049967678140602,-44.16425454959208,-1.7858784830895404
253,10.160057614000038,bno085,6.74609375,0.44140625,6.63671875,-0.00390625,0.025390625,0.0,0.022705078125,-0.38714599609375,-0.00592041015625,0.9217529296875,3.038815830187158,-44.11974253673381,-1.7799302675884587
254,10.20005710700002,bno085,6.8203125,0.44140625,6.59765625,0.00390625,-0.03125,0.001953125,0.022705078125,-0.38714599609375,-0.00592041015625,0.9217529296875,3.038815830187158,-44.11974253673381,-1.7799302675884587
255,10.240057192999984,bno085,6.9765625,0.44140625,6.59765625,0.001953125,-0.060546875,0.0,0.02276611328125,-0.387939453125,-0.0059814453125,0.92138671875,3.0560590937647167,-44.21707569749358,-1.797429305165704
256,10.280058687000064,bno085,7.125,0.44140625,6.55859375,0.001953125,-0.060546875,0.0,0.02288818359375,-0.389404296875,-0.0059814453125,0.9207763671875,3.083113364622389,-44.39923244670014,-1.8139007524325979
257,10.320057605999978,bno085,6.90234375,0.44140625,6.59765625,0.0078125,-0.03515625,0.0078125,0.02294921875,-0.39056396484375,-0.00579833984375,0.9202880859375,3.0884982004029964,-44.54394264912746,-1.7977394174512487
258,10.360057117999986,bno085,6.82421875,0.44140625,6.55859375,0.013671875,-0.080078125,0.001953125,0.02313232421875,-0.392578125,-0.00567626953125,0.91943359375,3.121030104973323,-44.79480047157656,-1.8036170830975538
259,10.400057480999976,bno085,6.8984375,0.44140625,6.5234375,0.005859375,-0.1171875,-0.001953125,0.02337646484375,-0.39544677734375,-0.00567626953125,0.91815185546875,3.1755282942696947,-45.15031565025113,-1.837274517629019
260,10.440060234000043,bno085,6.8984375,0.44140625,6.484375,0.0078125,-0.166015625,-0.005859375,0.02337646484375,-0.39544677734375,-0.00567626953125,0.91815185546875,3.1755282942696947,-45.15031565025113,-1.837274517629019
261,10.480056820000073,bno085,7.203125,0.44140625,6.484375,0.0078125,-0.166015625,-0.005859375,0.0235595703125,-0.3992919921875,-0.00579833984375,0.91650390625,3.235636518772902,-45.63012494043276,-1.8925010556894084
262,10.520057554000005,bno085,7.203125,0.44140625,6.40625,0.0,-0.16015625,-0.0078125,0.02362060546875,-0.40313720703125,-0.0059814453125,0.914794921875,3.2820518749935745,-46.109467018351296,-1.9501064575502265
263,10.56005737999999,bno085,7.16796875,0.40625,6.3671875,0.001953125,-0.154296875,0.0,0.023681640625,-0.40679931640625,-0.00592041015625,0.9132080078125,3.313014215188987,-46.5692690845988,-1.9704380707093732
264,10.60006024400002,bno085,7.05078125,0.44140625,6.328125,0.017578125,-0.193359375,-0.005859375,0.023681640625,-0.40679931640625,-0.00592041015625,0.9132080078125,3.313014215188987,-46.5692690845988,-1.9704380707093732
265,10.64005781100002,bno085,7.3203125,0.48046875,6.25390625,0.0078125,-0.193359375,-0.001953125,0.0240478515625,-0.4111328125,-0.0059814453125,0.9112548828125,3.404609077368984,-47.111984222311555,-2.0360736252738376
266,10.680059692999976,bno085,7.24609375,0.51953125,6.17578125,0.0078125,-0.193359375,-0.001953125,0.0242919921875,-0.4156494140625,-0.006103515625,0.9091796875,3.48455397232286,-47.67842916916621,-2.106034270054235
267,10.72005926099996,bno085,7.203125,0.3671875,6.13671875,0.0078125,-0.220703125,0.00390625,0.0242919921875,-0.42071533203125,-0.006103515625,0.9068603515625,3.5241949198921008,-48.317341052645766,-2.145800297556733
268,10.760058754000056,bno085,7.36328125,0.59765625,6.0625,0.005859375,-0.248046875,-0.0234375,0.0247802734375,-0.42645263671875,-0.00634765625,0.9041748046875,3.6661113544462562,-49.04079166647117,-2.2674556340256564
269,10.800058209999975,bno085,7.46875,0.6328125,5.9453125,0.0078125,-0.26953125,0.001953125,0.02496337890625,-0.4326171875,-0.00628662109375,0.90118408203125,3.744843464852567,-49.820317549618004,-2.325585711150905
270,10.840057258999991,bno085,7.58984375,0.48046875,5.87109375,0.013671875,-0.2734375,-0.0078125,0.02496337890625,-0.4326171875,-0.00628662109375,0.90118408203125,3.744843464852567,-49.820317549618004,-2.325585711150905
271,10.880056808000063,bno085,7.625,0.51953125,5.83203125,0.013671875,-0.2734375,-0.0078125,0.0252685546875,-0.4388427734375,-0.00640869140625,0.898193359375,3.8612633674784442,-50.611805083155375,-2.4266717109165596
272,10.920057172000043,bno085,7.74609375,0.48046875,5.71875,0.015625,-0.2734375,-0.021484375,0.02569580078125,-0.445068359375,-0.00677490234375,0.89508056640625,4.02132545819065,-51.402613053226304,-2.582509990404801
273,10.960058202000027,bno085,8.05078125,0.55859375,5.640625,0.009765625,-0.216796875,0.013671875,0.025634765625,-0.4468994140625,-0.0067138671875,0.89422607421875,4.025559147736951,-51.638861391962806,-2.5863978937147
274,11.00005769500001,bno085,7.85546875,0.44140625,5.6015625,0.01171875,-0.169921875,0.0,0.025634765625,-0.4468994140625,-0.0067138671875,0.89422607421875,4.025559147736951,-51.638861391962806,-2.5863978937147
275,11.04005637399996,bno085,7.9296875,0.48046875,5.5625,0.009765625,-0.1484375,-0.009765625,0.02569580078125,-0.4498291015625,-0.00677490234375,0.89276123046875,4.071461242366123,-52.0137512397937,-2.6323963849893395
276,11.08005768199996,bno085,7.9296875,0.59765625,5.48828125,0.013671875,-0.126953125,-0.001953125,0.02606201171875,-0.45294189453125,-0.00677490234375,0.89111328125,4.1668477244589575,-52.40994005997244,-2.697058999651166
277,11.12005845300007,bno085,7.81640625,0.51953125,5.44921875,0.013671875,-0.126953125,-0.001953125,0.0262451171875,-0.45556640625,-0.00677490234375,0.8897705078125,4.227431495046713,-52.74651586493048,-2.7421720860118577
278,11.160057520999999,bno085,7.81640625,0.51953125,5.44921875,0.0078125,-0.1484375,-0.001953125,0.02642822265625,-0.45867919921875,-0.00689697265625,0.88818359375,4.304982522048788,-53.146483997698176,-2.814740543920059
279,11.200057384000047,bno085,8.47265625,0.6328125,5.33203125,0.01171875,-0.171875,-0.00390625,0.026611328125,-0.4620361328125,-0.00689697265625,0.88641357421875,4.376680651150346,-53.57783621994534,-2.871096135274684
280,11.240056914999968,bno085,7.70703125,0.44140625,5.33203125,0.0078125,-0.154296875,-0.00390625,0.026611328125,-0.4620361328125,-0.00689697265625,0.88641357421875,4.376680651150346,-53.57783621994534,-2.871096135274684
281,11.280059279000056,bno085,8.0859375,0.44140625,5.2578125,0.0078125,-0.154296875,-0.00390625,0.02667236328125,-0.46502685546875,-0.00701904296875,0.8848876953125,4.434910535125185,-53.96450689549301,-2.934511409224822
282,11.320056789999967,bno085,8.20703125,0.55859375,5.2578125,0.005859375,-0.1328125,-0.001953125,0.02685546875,-0.46795654296875,-0.00714111328125,0.88330078125,4.514850727600691,-54.34120046905637,-3.0096870924595795
283,11.360056487000065,bno085,8.35546875,0.48046875,5.1796875,0.001953125,-0.142578125,-0.0078125,0.027099609375,-0.470703125,-0.00732421875,0.8818359375,4.610487613105453,-54.695445835650936,-3.1005035389300697
284,11.400058091999995,bno085,7.96875,0.59765625,5.140625,0.0,-0.115234375,-0.0078125,0.027099609375,-0.470703125,-0.00732421875,0.8818359375,4.610487613105453,-54.695445835650936,-3.1005035389300697
285,11.440058437000062,bno085,8.05078125,0.51953125,5.140625,0.00390625,-0.125,0.001953125,0.02716064453125,-0.47296142578125,-0.00750732421875,0.880615234375,4.66853481467212,-54.987089552076185,-3.169162971608864
286,11.480059245000007,bno085,8.046875,0.55859375,5.02734375,0.01171875,-0.134765625,-0.0078125,0.0272216796875,-0.4755859375,-0.00750732421875,0.87921142578125,4.7163531100024585,-55.32818546568099,-3.2117261917583853
287,11.520059313000047,bno085,8.203125,0.59765625,4.98828125,0.01171875,-0.134765625,-0.0078125,0.02740478515625,-0.47821044921875,-0.00762939453125,0.8778076171875,4.798581759327259,-55.6692100927436,-3.2888718301156943
288,11.560059862000003,bno085,8.16796875,0.55859375,4.98828125,-0.001953125,-0.150390625,-0.0078125,0.02740478515625,-0.481201171875,-0.00787353515625,0.87615966796875,4.865928058677251,-56.05748889755191,-3.377084140490261
289,11.600062577000017,bno085,8.203125,0.55859375,4.94921875,0.00390625,-0.15234375,0.001953125,0.02740478515625,-0.481201171875,-0.00787353515625,0.87615966796875,4.865928058677251,-56.05748889755191,-3.377084140490261
290,11.640059422000036,bno085,8.47265625,0.55859375,4.875,-0.00390625,-0.107421875,0.0,0.02740478515625,-0.48431396484375,-0.00787353515625,0.87445068359375,4.913865510782069,-56.464127088100405,-3.424822916304655
291,11.680058970999994,bno085,8.31640625,0.51953125,4.8359375,-0.00390625,-0.107421875,0.0,0.02734375,-0.48663330078125,-0.008056640625,0.8731689453125,4.956881390851517,-56.76696466005261,-3.488443705605918
292,11.720058705000042,bno085,8.47265625,0.44140625,4.796875,0.009765625,-0.087890625,-0.00390625,0.027587890625,-0.488525390625,-0.008056640625,0.8720703125,5.032622315459547,-57.012754368435914,-3.5438325953908065
293,11.760060551000038,bno085,8.47265625,0.48046875,4.72265625,-0.01171875,-0.10546875,-0.001953125,0.027587890625,-0.49053955078125,-0.00823974609375,0.8709716796875,5.084237804246048,-57.27686532424818,-3.6107973966963636
294,11.80005858100003,bno085,8.39453125,0.55859375,4.72265625,0.01171875,-0.078125,0.0,0.027587890625,-0.49053955078125,-0.00823974609375,0.8709716796875,5.084237804246048,-57.27686532424818,-3.6107973966963636
295,11.840058074000012,bno085,8.39453125,0.59765625,4.68359375,0.0,-0.080078125,0.001953125,0.0277099609375,-0.49237060546875,-0.00823974609375,0.86993408203125,5.138190436402042,-57.51668624804305,-3.6544312378665036
296,11.880062419000069,bno085,8.51171875,0.51953125,4.68359375,0.0,-0.080078125,0.001953125,0.02783203125,-0.494140625,-0.00823974609375,0.868896484375,5.1916739757744965,-57.747895817237,-3.69775298800937
297,11.920059024000011,bno085,8.66015625,0.17578125,4.60546875,0.048828125,-0.033203125,-0.005859375,0.02838134765625,-0.4952392578125,-0.00787353515625,0.8682861328125,5.278159383757425,-57.89284992940458,-3.706990701060851
298,11.960058295000067,bno085,8.2734375,0.7109375,4.64453125,0.025390625,-0.052734375,0.005859375,0.02838134765625,-0.49664306640625,-0.0079345703125,0.86749267578125,5.3095429297311165,-58.07754538639592,-3.7434571816752302
299,12.000060270000063,bno085,8.5078125,0.51953125,4.60546875,-0.009765625,-0.05078125,-0.001953125,0.02838134765625,-0.49664306640625,-0.0079345703125,0.86749267578125,5.3095429297311165,-58.07754538639592,-3.7434571816752302
300,12.040058725999984,bno085,8.3515625,0.51953125,4.60546875,-0.009765625,-0.078125,-0.001953125,0.0284423828125,-0.49798583984375,-0.0079345703125,0.86669921875,5.345434707964449,-58.25355078495884,-3.7743018582456633
301,12.080058700999984,bno085,8.55078125,0.55859375,4.56640625,-0.009765625,-0.078125,-0.001953125,0.02838134765625,-0.49957275390625,-0.00811767578125,0.86578369140625,5.381984084062097,-58.4619826661456,-3.831448648245351
302,12.120057991000067,bno085,8.39453125,0.6328125,4.56640625,0.001953125,-0.05859375,0.0,0.0283203125,-0.50103759765625,-0.00830078125,0.86492919921875,5.416857456018387,-58.65433671220376,-3.8869319703544214
303,12.160059614000033,bno085,8.35546875,0.55859375,4.53125,-0.0078125,-0.08203125,-0.00390625,0.0283203125,-0.50286865234375,-0.00848388671875,0.86383056640625,5.471115080746451,-58.89426251463743,-3.9568044838648295
304,12.200056958999994,bno085,8.5078125,0.59765625,4.4921875,0.005859375,-0.072265625,-0.001953125,0.0283203125,-0.50286865234375,-0.00848388671875,0.86383056640625,5.471115080746451,-58.89426251463743,-3.9568044838648295
305,12.240057989999968,bno085,8.31640625,0.6328125,4.453125,0.001953125,-0.11328125,0.001953125,0.0284423828125,-0.504638671875,-0.008544921875,0.86279296875,5.536130695631558,-59.1274520184363,-4.016719785808975
306,12.280059779999988,bno085,8.234375,0.328125,4.453125,0.001953125,-0.11328125,0.001953125,0.02862548828125,-0.50714111328125,-0.008544921875,0.861328125,5.622477202800278,-59.458287463590196,-4.0875919876500415
307,12.320060106000028,bno085,8.93359375,0.59765625,4.375,-0.005859375,-0.146484375,0.00390625,0.02880859375,-0.51025390625,-0.008544921875,0.8594970703125,5.723553369274816,-59.87083640597399,-4.173115327282138
308,12.360060081000029,bno085,8.8125,0.21484375,4.30078125,0.013671875,-0.056640625,0.0078125,0.02935791015625,-0.51171875,-0.00830078125,0.85858154296875,5.837126964769834,-60.06348200884933,-4.220465299249772
309,12.400059166999995,bno085,8.734375,1.24609375,4.4140625,-0.02734375,0.01171875,-0.00390625,0.02984619140625,-0.51171875,-0.00799560546875,0.85858154296875,5.900692922971926,-60.06333904119395,-4.217585615420807
310,12.440057512000067,bno085,8.46875,0.48046875,4.375,0.015625,0.01171875,0.005859375,0.02984619140625,-0.51171875,-0.00799560546875,0.85858154296875,5.900692922971926,-60.06333904119395,-4.217585615420807
311,12.480057487000067,bno085,8.39453125,0.48046875,4.375,0.015625,0.01171875,0.005859375,0.02984619140625,-0.51171875,-0.00799560546875,0.85858154296875,5.900692922971926,-60.06333904119395,-4.217585615420807
312,12.520057777000034,bno085,8.390625,0.51953125,4.375,-0.009765625,-0.0390625,-0.001953125,0.02984619140625,-0.51263427734375,-0.00811767578125,0.8580322265625,5.934478731568593,-60.18426473283026,-4.261690423382343
313,12.560057141000016,bno085,8.3125,0.6328125,4.33984375,-0.0078125,-0.111328125,-0.0078125,0.0299072265625,-0.51483154296875,-0.00830078125,0.85675048828125,6.0170120948385755,-60.47632310628983,-4.354334662566657
314,12.600062690000073,bno085,8.58984375,0.6328125,4.30078125,-0.001953125,-0.103515625,-0.00390625,0.02984619140625,-0.5172119140625,-0.008544921875,0.85528564453125,6.08741572484514,-60.791556077617514,-4.45048153324778
315,12.64005742400002,bno085,8.3515625,0.55859375,4.26171875,-0.01953125,-0.150390625,-0.0078125,0.02984619140625,-0.5172119140625,-0.008544921875,0.85528564453125,6.08741572484514,-60.791556077617514,-4.45048153324778
316,12.680058010000039,bno085,8.73828125,0.25,4.26171875,0.009765625,-0.130859375,0.0,0.02972412109375,-0.520263671875,-0.00897216796875,0.85345458984375,6.185403006269131,-61.19752882858872,-4.59434225821534
317,12.720057929000063,bno085,8.85546875,0.40625,4.14453125,0.009765625,-0.130859375,0.0,0.0299072265625,-0.52313232421875,-0.0091552734375,0.8516845703125,6.3164076525282935,-61.57892196971773,-4.725444989279495
318,12.760059737000006,bno085,8.77734375,0.59765625,4.14453125,0.00390625,-0.08203125,0.001953125,0.0299072265625,-0.5252685546875,-0.00921630859375,0.850341796875,6.378463532114836,-61.86406913104431,-4.792576354134347
319,12.80005823099998,bno085,8.8515625,0.55859375,4.0703125,0.00390625,-0.05078125,-0.001953125,0.03021240234375,-0.52679443359375,-0.0091552734375,0.84942626953125,6.475554773664522,-62.068513243643636,-4.858919052019871
320,12.840058447000047,bno085,8.58984375,0.6328125,4.109375,0.0,-0.087890625,0.0,0.03021240234375,-0.52679443359375,-0.0091552734375,0.84942626953125,6.475554773664522,-62.068513243643636,-4.858919052019871
321,12.880058366000071,bno085,8.85546875,0.51953125,4.03125,0.017578125,-0.076171875,-0.015625,0.030517578125,-0.52862548828125,-0.0091552734375,0.8482666015625,6.5894532139899455,-62.31240008707037,-4.947508033174571
322,12.920058284999982,bno085,8.43359375,0.7890625,4.0703125,0.017578125,-0.076171875,-0.015625,0.0311279296875,-0.53070068359375,-0.00897216796875,0.846923828125,6.754200448372178,-62.58849429691604,-5.046434858490017
323,12.960058722999975,bno085,8.6171875,0.55859375,3.9921875,0.001953125,-0.150390625,-0.005859375,0.0311279296875,-0.5340576171875,-0.0091552734375,0.8448486328125,6.874886731956182,-63.040423985398895,-5.181974424114005
324,13.00006082799996,bno085,8.6953125,0.51953125,3.91796875,0.0,-0.171875,0.0,0.03118896484375,-0.53778076171875,-0.00933837890625,0.84246826171875,7.024600208843866,-63.54115599451077,-5.341745388437945
325,13.040058784000053,bno085,9.0,0.59765625,3.83984375,0.0,-0.15234375,-0.005859375,0.03118896484375,-0.53778076171875,-0.00933837890625,0.84246826171875,7.024600208843866,-63.54115599451077,-5.341745388437945
326,13.080057018000048,bno085,9.0390625,0.6328125,3.80078125,-0.0078125,-0.1015625,-0.001953125,0.0313720703125,-0.54132080078125,-0.00946044921875,0.84014892578125,7.193495950158496,-64.01721744444433,-5.505701806757082
327,13.120058308000011,bno085,8.890625,0.59765625,3.76171875,-0.0078125,-0.1015625,-0.001953125,0.03131103515625,-0.543212890625,-0.0096435546875,0.83892822265625,7.267026416621058,-64.27282642588746,-5.599392718008001
328,13.160058357000025,bno085,9.27734375,0.6328125,3.6875,-0.01171875,-0.080078125,-0.001953125,0.03118896484375,-0.54473876953125,-0.009765625,0.83795166015625,7.3076816684575086,-64.4801268741866,-5.660050272843057
329,13.200058184,bno085,8.9296875,0.59765625,3.6875,-0.005859375,-0.005859375,0.001953125,0.0311279296875,-0.54498291015625,-0.009765625,0.83782958984375,7.302416799607917,-64.51457273064527,-5.659529183766942
330,13.240058900000008,bno085,8.85546875,0.59765625,3.6875,0.001953125,-0.017578125,0.0,0.0311279296875,-0.54498291015625,-0.009765625,0.83782958984375,7.302416799607917,-64.51457273064527,-5.659529183766942
331,13.280059262999998,bno085,8.890625,0.59765625,3.6875,0.00390625,-0.005859375,0.001953125,0.03106689453125,-0.5452880859375,-0.00970458984375,0.837646484375,7.290580041003548,-64.55725476234122,-5.647441709127995
332,13.320058535000044,bno085,8.6171875,0.59765625,3.6875,0.00390625,-0.005859375,0.001953125,0.031005859375,-0.5455322265625,-0.0096435546875,0.83746337890625,7.276330442706696,-64.5906577185702,-5.633215951007357
333,13.360058287000015,bno085,8.81640625,0.59765625,3.6875,-0.00390625,-0.0703125,0.00390625,0.03094482421875,-0.5467529296875,-0.0096435546875,0.836669921875,7.304142247266967,-64.7571108485866,-5.665845311750641
334,13.400058596000008,bno085,8.77734375,0.59765625,3.6484375,0.0,-0.0234375,0.001953125,0.03082275390625,-0.54754638671875,-0.00958251953125,0.836181640625,7.2951776845088245,-64.86705397822634,-5.661470232244854
335,13.440058330000056,bno085,8.97265625,0.55859375,3.6484375,0.001953125,-0.03515625,0.0,0.03082275390625,-0.54754638671875,-0.00958251953125,0.836181640625,7.2951776845088245,-64.86705397822634,-5.661470232244854
336,13.480058342000007,bno085,9.0390625,0.55859375,3.609375,0.0,-0.01171875,-0.005859375,0.03076171875,-0.54840087890625,-0.0096435546875,0.8355712890625,7.31905290861503,-64.98207672747566,-5.695691078406014
337,13.520057854000015,bno085,8.7734375,0.671875,3.5703125,0.0,-0.01171875,-0.005859375,0.03076171875,-0.54876708984375,-0.00970458984375,0.83538818359375,7.340980289327272,-65.03292120403921,-5.722292909354613
338,13.560058440000034,bno085,8.734375,0.6328125,3.609375,0.00390625,-0.048828125,0.001953125,0.03070068359375,-0.54986572265625,-0.00970458984375,0.83465576171875,7.365560308318525,-65.18281331271247,-5.751773661422231
339,13.600059896000062,bno085,8.890625,0.59765625,3.5703125,0.00390625,-0.091796875,0.005859375,0.03070068359375,-0.55181884765625,-0.00958251953125,0.8333740234375,7.417982904227505,-65.45052157807478,-5.793567709149609
340,13.640058390000036,bno085,8.97265625,0.59765625,3.49609375,0.009765625,-0.091796875,0.0,0.03070068359375,-0.55181884765625,-0.00958251953125,0.8333740234375,7.417982904227505,-65.45052157807478,-5.793567709149609
341,13.680058513000063,bno085,8.8515625,1.4765625,3.5703125,-0.033203125,-0.171875,-0.0078125,0.0311279296875,-0.55389404296875,-0.0096435546875,0.83197021484375,7.603583317700907,-65.73038620329112,-5.948998532468605
342,13.72005809899997,bno085,9.3515625,0.328125,3.45703125,-0.033203125,-0.171875,-0.0078125,0.031005859375,-0.55718994140625,-0.01019287109375,0.8297119140625,7.783481374456095,-66.17660413121449,-6.184718483943145
343,13.76005851800005,bno085,9.234375,0.59765625,3.41796875,0.013671875,-0.076171875,0.001953125,0.031005859375,-0.5589599609375,-0.01025390625,0.82855224609375,7.864052788919939,-66.41960644487149,-6.269833197676779
344,13.800056992999998,bno085,9.078125,0.59765625,3.34375,0.00390625,-0.0078125,0.001953125,0.03106689453125,-0.55938720703125,-0.01025390625,0.8282470703125,7.896067397092491,-66.4774420088626,-6.296874446443453
345,13.840057987000023,bno085,9.08203125,0.6328125,3.37890625,-0.005859375,0.0234375,0.001953125,0.03106689453125,-0.55938720703125,-0.01025390625,0.8282470703125,7.896067397092491,-66.4774420088626,-6.296874446443453
346,13.880057962000024,bno085,9.1953125,0.6328125,3.37890625,-0.009765625,0.09375,-0.001953125,0.03106689453125,-0.55908203125,-0.01025390625,0.8284912109375,7.883921206628292,-66.43645699073625,-6.284518726505865
347,13.920057640999971,bno085,9.3125,0.6328125,3.41796875,-0.009765625,0.09375,-0.001953125,0.03094482421875,-0.55743408203125,-0.01031494140625,0.82958984375,7.797365676331205,-66.21045914863863,-6.2134919614875255
348,13.960056264000059,bno085,8.85546875,0.48046875,3.49609375,-0.017578125,0.138671875,0.001953125,0.03070068359375,-0.55474853515625,-0.010498046875,0.8314208984375,7.661788381530003,-65.84355389407122,-6.1136022317210195
349,14.000059831000044,bno085,9.1171875,0.671875,3.53515625,-0.0078125,0.14453125,0.0,0.03057861328125,-0.552001953125,-0.01055908203125,0.83319091796875,7.537771275053736,-65.46706208134546,-6.005642795374798
350,14.04005732500002,bno085,8.8515625,0.59765625,3.609375,-0.013671875,0.150390625,-0.001953125,0.03057861328125,-0.552001953125,-0.01055908203125,0.83319091796875,7.537771275053736,-65.46706208134546,-6.005642795374798
351,14.080058855000061,bno085,8.97265625,0.7109375,3.6484375,-0.02734375,0.158203125,-0.0078125,0.03045654296875,-0.5489501953125,-0.0107421875,0.83526611328125,7.424860865961633,-65.05162783566699,-5.918321411851768
352,14.12005681200003,bno085,8.73828125,0.51953125,3.76171875,-0.02734375,0.158203125,-0.0078125,0.0301513671875,-0.5457763671875,-0.0111083984375,0.83734130859375,7.294694191215304,-64.61868835630798,-5.8446490284916015
353,14.160057749999964,bno085,8.62109375,0.55859375,3.76171875,-0.01953125,0.12890625,-0.001953125,0.02996826171875,-0.5430908203125,-0.01123046875,0.83905029296875,7.178403941087427,-64.25324922103707,-5.754443569409074
354,14.20005702100002,bno085,8.55078125,0.59765625,3.80078125,-0.005859375,0.05078125,0.0,0.030029296875,-0.5419921875,-0.01129150390625,0.83978271484375,7.163938565952243,-64.10398923514612,-5.740171495215062
355,14.240057459000013,bno085,8.93359375,0.59765625,3.80078125,-0.009765625,0.0546875,-0.001953125,0.030029296875,-0.5419921875,-0.01129150390625,0.83978271484375,7.163938565952243,-64.10398923514612,-5.740171495215062
356,14.280059397000059,bno085,8.77734375,0.6328125,3.83984375,-0.001953125,0.0546875,0.001953125,0.02996826171875,-0.54095458984375,-0.0113525390625,0.8404541015625,7.124333819347171,-63.963344015944905,-5.710919628282718
357,14.320064169000034,bno085,9.00390625,0.55859375,3.87890625,-0.001953125,0.0546875,0.001953125,0.030029296875,-0.53985595703125,-0.0113525390625,0.8411865234375,7.102239858922275,-63.81487767842605,-5.683862966477863
358,14.360059643999989,bno085,8.77734375,0.7109375,3.91796875,-0.001953125,0.130859375,0.001953125,0.02996826171875,-0.53741455078125,-0.0113525390625,0.84271240234375,7.010376835995558,-63.4840952627529,-5.59771918305745
359,14.400057767000021,bno085,8.734375,0.55859375,3.9921875,-0.01953125,0.140625,0.0,0.0296630859375,-0.53460693359375,-0.011474609375,0.84454345703125,6.872974331758489,-63.107107989814715,-5.4960540285732
360,14.440058797000006,bno085,8.97265625,0.828125,3.9921875,-0.048828125,0.1796875,-0.013671875,0.0296630859375,-0.53460693359375,-0.011474609375,0.84454345703125,6.872974331758489,-63.107107989814715,-5.4960540285732
361,14.480057680000073,bno085,8.73828125,0.59765625,4.14453125,-0.0390625,0.177734375,-0.015625,0.029052734375,-0.5311279296875,-0.01214599609375,0.84674072265625,6.72314796091079,-62.637293351527354,-5.453907188731608
362,14.52006015500001,bno085,8.85546875,0.55859375,4.18359375,-0.0390625,0.177734375,-0.015625,0.02838134765625,-0.52740478515625,-0.01275634765625,0.84906005859375,6.549394189444019,-62.136423655376085,-5.38800793858432
363,14.560058352000055,bno085,8.55078125,0.3671875,4.22265625,-0.017578125,0.23046875,-0.01171875,0.0283203125,-0.5263671875,-0.01318359375,0.84967041015625,6.559665905023788,-61.993855449336195,-5.439811584897348
364,14.600061215999972,bno085,8.390625,0.7890625,4.30078125,-0.04296875,0.171875,-0.0078125,0.028076171875,-0.52508544921875,-0.01336669921875,0.8504638671875,6.49494672373279,-61.822197189849085,-5.4110669522232495
365,14.640058394999983,bno085,8.46875,0.48046875,4.375,-0.00390625,0.19140625,0.001953125,0.028076171875,-0.52508544921875,-0.01336669921875,0.8504638671875,6.49494672373279,-61.822197189849085,-5.4110669522232495
366,14.680059129000028,bno085,8.546875,0.86328125,4.4140625,-0.0390625,0.18359375,-0.017578125,0.02813720703125,-0.52264404296875,-0.01318359375,0.85198974609375,6.41898367090301,-61.49678530467907,-5.315107094879881
367,14.72005839999997,bno085,8.81640625,0.328125,4.453125,-0.0390625,0.18359375,-0.017578125,0.0279541015625,-0.519287109375,-0.01348876953125,0.85400390625,6.328051669497948,-61.04626019481932,-5.266160505873417
368,14.760057635000067,bno085,8.46875,0.44140625,4.53125,0.0078125,0.232421875,-0.0078125,0.0279541015625,-0.51470947265625,-0.01300048828125,0.8568115234375,6.1556620995938305,-60.44024138927441,-5.053387303502445
369,14.800058110000009,bno085,8.73828125,0.3671875,4.72265625,-0.021484375,0.30859375,-0.0078125,0.02740478515625,-0.5086669921875,-0.01263427734375,0.86041259765625,5.862077339739272,-59.64233837016607,-4.775762392291758
370,14.84005769600003,bno085,8.65625,0.7890625,4.68359375,-0.029296875,0.40234375,0.015625,0.02740478515625,-0.5086669921875,-0.01263427734375,0.86041259765625,5.862077339739272,-59.64233837016607,-4.775762392291758
371,14.880058781999992,bno085,8.01171875,0.3671875,4.875,-0.021484375,0.296875,0.01171875,0.027099609375,-0.500244140625,-0.01226806640625,0.8653564453125,5.5818189175593576,-58.53239679740294,-4.49157450085472
372,14.920059423999987,bno085,7.70703125,0.40625,5.06640625,-0.021484375,0.296875,0.01171875,0.02679443359375,-0.4935302734375,-0.01202392578125,0.8692626953125,5.366408801145793,-57.65294727159427,-4.281998294060768
373,14.960057139000014,bno085,7.93359375,0.51953125,5.02734375,-0.009765625,0.146484375,-0.009765625,0.026611328125,-0.489990234375,-0.01220703125,0.8712158203125,5.283885349062157,-57.18690884253447,-4.231332878711401
374,15.000057540000057,bno085,8.01171875,0.48046875,5.10546875,-0.005859375,0.0859375,-0.001953125,0.0263671875,-0.48809814453125,-0.01226806640625,0.872314453125,5.210153038067287,-56.94080719157388,-4.183493718956691
375,15.04005775600001,bno085,8.0859375,0.6328125,5.10546875,0.001953125,0.0703125,0.0078125,0.0263671875,-0.48809814453125,-0.01226806640625,0.872314453125,5.210153038067287,-56.94080719157388,-4.183493718956691
376,15.08005837899998,bno085,8.234375,0.48046875,5.1796875,-0.001953125,0.1015625,0.0078125,0.02618408203125,-0.48663330078125,-0.01220703125,0.87310791015625,5.144034178188868,-56.749408190962704,-4.1278818326866515
377,15.120059466000043,bno085,8.203125,0.6328125,5.1796875,-0.001953125,0.1015625,0.0078125,0.026123046875,-0.4844970703125,-0.011962890625,0.87432861328125,5.072286136144542,-56.47252939149995,-4.040691542491008
378,15.160057866999978,bno085,8.16796875,0.51953125,5.21875,-0.00390625,0.1328125,0.0,0.0260009765625,-0.4818115234375,-0.011962890625,0.87579345703125,5.004384487311353,-56.12189893356449,-3.983647478673638
379,15.200056692999965,bno085,8.08984375,0.48046875,5.296875,0.00390625,0.169921875,0.0078125,0.02587890625,-0.47845458984375,-0.0118408203125,0.87762451171875,4.915710373317417,-55.68527202294687,-3.8954700231859993
380,15.240058446000035,bno085,8.0078125,0.671875,5.33203125,-0.017578125,0.158203125,-0.0078125,0.02587890625,-0.47845458984375,-0.0118408203125,0.87762451171875,4.915710373317417,-55.68527202294687,-3.8954700231859993
381,15.280058513999961,bno085,8.27734375,0.48046875,5.37109375,-0.015625,0.244140625,-0.01171875,0.025634765625,-0.47491455078125,-0.011962890625,0.87957763671875,4.827029657971743,-55.226222131963766,-3.838384040030211
382,15.320058193000023,bno085,8.203125,0.7890625,5.44921875,-0.015625,0.244140625,-0.01171875,0.0252685546875,-0.4698486328125,-0.0123291015625,0.88226318359375,4.717175305632208,-54.567903841930026,-3.7920058271444694
383,15.360059019999994,bno085,8.12890625,0.05859375,5.6015625,-0.068359375,0.265625,-0.02734375,0.02398681640625,-0.4642333984375,-0.0135498046875,0.88531494140625,4.516720690302191,-53.8437900249873,-3.805839086934884
384,15.400057550000042,bno085,7.9296875,0.44140625,5.6015625,-0.02734375,0.337890625,-0.01171875,0.02362060546875,-0.4571533203125,-0.01336669921875,0.88897705078125,4.3403777015961795,-52.93312368185716,-3.6467363138586233
385,15.440058617999966,bno085,7.890625,0.671875,5.71875,0.00390625,0.40625,0.0234375,0.02362060546875,-0.4571533203125,-0.01336669921875,0.88897705078125,4.3403777015961795,-52.93312368185716,-3.6467363138586233
386,15.48005498200007,bno085,7.55078125,0.328125,5.87109375,-0.01171875,0.4375,0.001953125,0.023193359375,-0.44866943359375,-0.01318359375,0.893310546875,4.145053144307191,-51.847462093604825,-3.474172426729525
387,15.520058161000065,bno085,7.58984375,0.7109375,5.984375,-0.01171875,0.4375,0.001953125,0.02276611328125,-0.4388427734375,-0.01287841796875,0.898193359375,3.936115043789773,-50.595815710825384,-3.2778430884126686
388,15.560056988000042,bno085,7.28125,0.2890625,6.1015625,-0.03125,0.439453125,-0.00390625,0.02203369140625,-0.42889404296875,-0.0128173828125,0.90301513671875,3.7074111459904904,-49.33549602161861,-3.1091471980552177
389,15.600059203,bno085,6.9765625,0.2890625,6.328125,-0.04296875,0.4140625,0.013671875,0.02142333984375,-0.4195556640625,-0.01275634765625,0.90740966796875,3.515768204120429,-48.15769962730164,-2.9672549621311486
390,15.640056716000004,bno085,7.1640625,0.59765625,6.3671875,-0.017578125,0.369140625,0.015625,0.02142333984375,-0.4195556640625,-0.01275634765625,0.90740966796875,3.515768204120429,-48.15769962730164,-2.9672549621311486
391,15.680055968000033,bno085,7.1640625,0.44140625,6.484375,-0.0625,0.37109375,-0.025390625,0.02099609375,-0.4111328125,-0.01263427734375,0.9112548828125,3.365656829481182,-47.09926057378806,-2.8457995209325917
392,15.720059092000042,bno085,6.90234375,0.09765625,6.59765625,-0.0625,0.37109375,-0.025390625,0.02032470703125,-0.40277099609375,-0.0126953125,0.91497802734375,3.196970952847572,-46.05273567740804,-2.743154587118766
393,15.760057937000056,bno085,6.5546875,0.48046875,6.75,-0.025390625,0.3828125,-0.00390625,0.02008056640625,-0.3944091796875,-0.01251220703125,0.91864013671875,3.0843336862570725,-45.0108108151839,-2.6382331799923375
394,15.800057783000057,bno085,6.78515625,0.3671875,6.828125,-0.02734375,0.328125,-0.0078125,0.01959228515625,-0.3868408203125,-0.0128173828125,0.921875,2.974460137029842,-44.070617255706985,-2.6005254819063457
395,15.840057535000028,bno085,6.515625,0.328125,6.83203125,0.009765625,0.3046875,0.05078125,0.01959228515625,-0.3868408203125,-0.0128173828125,0.921875,2.974460137029842,-44.070617255706985,-2.6005254819063457
396,15.880057566000005,bno085,6.8203125,0.2890625,6.9765625,-0.005859375,0.37890625,0.013671875,0.019287109375,-0.379638671875,-0.012451171875,0.92486572265625,2.8592349885488684,-43.17931451379177,-2.481843392916172
397,15.920057893000035,bno085,7.05078125,0.48046875,7.05859375,-0.005859375,0.37890625,0.013671875,0.01885986328125,-0.37115478515625,-0.0125732421875,0.92828369140625,2.749139991770706,-42.131256308474605,-2.423205130784631
398,15.960057830999972,bno085,7.625,0.59765625,7.1328125,-0.0390625,0.546875,-0.017578125,0.01837158203125,-0.3590087890625,-0.01318359375,0.93304443359375,2.637539790963053,-40.63701949203635,-2.4143042399227466
399,16.000057714000036,bno085,5.40625,0.98046875,7.32421875,-0.01171875,0.76953125,0.0546875,0.0177001953125,-0.34185791015625,-0.01165771484375,0.93951416015625,2.377165717713196,-38.545193926741085,-2.081883192710357
400,16.04005754100001,bno085,5.6328125,-0.0546875,7.515625,-0.03125,0.62109375,-0.041015625,0.0177001953125,-0.34185791015625,-0.01165771484375,0.93951416015625,2.377165717713196,-38.545193926741085,-2.081883192710357
401,16.080057700999987,bno085,5.6328125,0.59765625,7.71484375,-0.07421875,0.46484375,-0.041015625,0.01702880859375,-0.32720947265625,-0.01177978515625,0.9447021484375,2.222161180173158,-36.76535703636964,-2.003733405808427
402,16.12005787999999,bno085,5.328125,0.13671875,7.7421875,-0.07421875,0.46484375,-0.041015625,0.01617431640625,-0.31573486328125,-0.01177978515625,0.94866943359375,2.058028645129711,-35.38075027426465,-1.9212314728525712
403,16.160056502999964,bno085,5.2890625,0.40625,7.90234375,-0.009765625,0.388671875,0.009765625,0.01593017578125,-0.3062744140625,-0.01202392578125,0.95172119140625,1.9975849949887634,-34.23933216357862,-1.909863125121436
404,16.200057681999965,bno085,5.44140625,0.13671875,7.9765625,-0.01953125,0.357421875,-0.0078125,0.01568603515625,-0.2978515625,-0.01190185546875,0.95440673828125,1.928812747783881,-33.22818662804769,-1.8559247260851688
405,16.240064286999996,bno085,5.25,0.48046875,8.01953125,-0.00390625,0.357421875,0.009765625,0.01568603515625,-0.2978515625,-0.01190185546875,0.95440673828125,1.928812747783881,-33.22818662804769,-1.8559247260851688
406,16.28005783599997,bno085,5.09765625,0.2890625,8.12890625,-0.041015625,0.384765625,-0.01171875,0.014892578125,-0.28973388671875,-0.01116943359375,0.9569091796875,1.7694759814693484,-32.257423585509095,-1.7044357607436864
407,16.320056774000022,bno085,4.9453125,0.13671875,8.2421875,-0.041015625,0.384765625,-0.01171875,0.01416015625,-0.2803955078125,-0.01129150390625,0.959716796875,1.6487729543483427,-31.143004986241973,-1.667046049853129
408,16.360057508000068,bno085,4.71484375,0.0234375,8.20703125,-0.0234375,0.400390625,-0.01953125,0.013916015625,-0.27099609375,-0.01129150390625,0.96240234375,1.5889620360175316,-30.02280408389147,-1.6348155591300155
409,16.40005742799997,bno085,5.13671875,0.828125,8.36328125,-0.05078125,0.412109375,-0.00390625,0.01324462890625,-0.2613525390625,-0.010498046875,0.965087890625,1.451181713382861,-28.878637224440997,-1.4891510418152216
410,16.440059292,bno085,4.83203125,0.25,8.4375,-0.0390625,0.4140625,0.013671875,0.01239013671875,-0.25146484375,-0.01055908203125,0.96771240234375,1.3199265619593263,-27.707628509418395,-1.4490255895709954
411,16.48005669300005,bno085,4.79296875,0.17578125,8.51171875,-0.01171875,0.48046875,-0.009765625,0.01239013671875,-0.25146484375,-0.01055908203125,0.96771240234375,1.3199265619593263,-27.707628509418395,-1.4490255895709954
412,16.520057686999962,bno085,4.37109375,0.48046875,8.55078125,-0.01171875,0.48046875,-0.009765625,0.01239013671875,-0.24017333984375,-0.0101318359375,0.9705810546875,1.281261292506487,-26.373327522076533,-1.375913366138534
413,16.56005764300005,bno085,4.29296875,0.13671875,8.6640625,-0.01171875,0.537109375,0.048828125,0.0115966796875,-0.2271728515625,-0.010009765625,0.9737548828125,1.1514167635580217,-24.843463946322984,-1.3170647640068998
414,16.60005834100002,bno085,3.796875,0.05859375,8.78125,-0.021484375,0.619140625,-0.0078125,0.01116943359375,-0.21246337890625,-0.009765625,0.97705078125,1.0638474856766031,-23.11591382548033,-1.2557274508103162
415,16.64005905700003,bno085,3.3359375,0.51953125,8.86328125,-0.048828125,0.537109375,-0.015625,0.01116943359375,-0.21246337890625,-0.009765625,0.97705078125,1.0638474856766031,-23.11591382548033,-1.2557274508103162
416,16.680059531999973,bno085,2.953125,0.13671875,8.8984375,-0.02734375,0.404296875,-0.00390625,0.01068115234375,-0.19915771484375,-0.00970458984375,0.9798583984375,0.9787889508672301,-21.558712133100354,-1.2204942127257206
417,16.72005815500006,bno085,3.14453125,-0.015625,9.05078125,-0.021484375,0.328125,0.013671875,0.01019287109375,-0.18896484375,-0.0096435546875,0.98187255859375,0.9010742830853512,-20.368633632120947,-1.191258480332932
418,16.76005774099997,bno085,2.875,0.25,9.046875,-0.021484375,0.328125,0.013671875,0.00994873046875,-0.1805419921875,-0.0093994140625,0.98345947265625,0.853368436656036,-19.38697993887996,-1.149034828282384
419,16.800057605000006,bno085,3.2578125,0.13671875,9.0859375,-0.021484375,0.271484375,0.029296875,0.00933837890625,-0.17376708984375,-0.0089111328125,0.98468017578125,0.7610663639761228,-18.598882047802732,-1.072495991729611
420,16.840057284000068,bno085,2.9140625,0.13671875,9.1640625,-0.0234375,0.267578125,0.013671875,0.0087890625,-0.16705322265625,-0.00836181640625,0.98590087890625,0.6767218526719682,-17.81975984719115,-0.9917671271762873
421,16.88005753699997,bno085,2.68359375,0.21484375,9.2421875,0.009765625,0.244140625,-0.025390625,0.0087890625,-0.16705322265625,-0.00836181640625,0.98590087890625,0.6767218526719682,-17.81975984719115,-0.9917671271762873
422,16.920057679000024,bno085,3.375,0.21484375,9.125,0.009765625,0.244140625,-0.025390625,0.0087890625,-0.15966796875,-0.00958251953125,0.987060546875,0.6869665608168476,-16.9608673206466,-1.1321206463807718
423,16.960058024999967,bno085,2.80078125,0.328125,9.24609375,-0.01953125,0.380859375,0.0390625,0.00830078125,-0.150390625,-0.0089111328125,0.988525390625,0.6060352564116724,-15.885437679201319,-1.039040571090817
424,17.000057869999978,bno085,2.953125,0.05859375,9.28515625,-0.01953125,0.390625,-0.1640625,0.0078125,-0.1407470703125,-0.00958251953125,0.989990234375,0.5455820050457709,-14.769792391264978,-1.1056014701680486
425,17.04005849300006,bno085,2.5703125,0.25,9.28125,-0.013671875,0.453125,0.02734375,0.0078125,-0.1407470703125,-0.00958251953125,0.989990234375,0.5455820050457709,-14.769792391264978,-1.1056014701680486
426,17.080059301999995,bno085,2.72265625,0.25,9.3515625,-0.0546875,0.55078125,0.0078125,0.00750732421875,-0.12957763671875,-0.00909423828125,0.99151611328125,0.4891756708057827,-13.478317886949295,-1.0399534459601252
427,17.12005861099999,bno085,1.84375,-0.0546875,9.390625,-0.02734375,0.52734375,0.009765625,0.00665283203125,-0.11602783203125,-0.00909423828125,0.9931640625,0.3732048920235572,-11.914266374613932,-1.0250038713295646
428,17.160058030000073,bno085,1.49609375,0.13671875,9.4296875,-0.02734375,0.52734375,0.009765625,0.00616455078125,-0.102783203125,-0.0089111328125,0.99462890625,0.2996817578702293,-10.387953881201046,-0.996750696052251
429,17.20005650500002,bno085,0.38671875,0.2890625,9.47265625,0.041015625,0.46875,-0.240234375,0.0057373046875,-0.0909423828125,-0.00787353515625,0.99578857421875,0.22934695760177748,-9.024855038422684,-0.8725576643629153
430,17.24005751800007,bno085,2.53125,-0.015625,9.46875,-0.015625,0.44921875,0.029296875,0.00518798828125,-0.07989501953125,-0.0081787109375,0.99676513671875,0.15751120156932108,-7.7551926525909,-0.9041397185754442
431,17.280057808000038,bno085,0.9609375,0.3671875,9.46875,-0.060546875,0.3515625,0.037109375,0.00518798828125,-0.07989501953125,-0.0081787109375,0.99676513671875,0.15751120156932108,-7.7551926525909,-0.9041397185754442
432,17.320057505000023,bno085,1.49609375,-0.16796875,9.625,-0.060546875,0.3515625,0.037109375,0.00457763671875,-0.07098388671875,-0.00787353515625,0.9974365234375,0.07701285350820113,-6.731518861223446,-0.8659485421344146
433,17.360057331999997,bno085,0.65625,0.25,9.5859375,-0.001953125,0.306640625,0.03125,0.00439453125,-0.0631103515625,-0.00775146484375,0.99798583984375,0.04829674689250621,-5.82751022884934,-0.8531073949992142
434,17.400057566999976,bno085,0.76953125,0.13671875,9.58984375,-0.01171875,0.275390625,0.00390625,0.004150390625,-0.05621337890625,-0.00762939453125,0.99835205078125,0.013661214225623853,-5.035620298898572,-0.8399608337355892
435,17.440057764000017,bno085,0.921875,0.05859375,9.62890625,-0.0078125,0.248046875,0.001953125,0.004150390625,-0.05621337890625,-0.00762939453125,0.99835205078125,0.013661214225623853,-5.035620298898572,-0.8399608337355892
436,17.480058461,bno085,0.65625,0.17578125,9.5859375,-0.01953125,0.220703125,0.01171875,0.00384521484375,-0.0499267578125,-0.007568359375,0.99871826171875,-0.027006900048876945,-4.314655911320814,-0.8337968112508065
437,17.520056733000047,bno085,0.69140625,-0.015625,9.625,-0.01953125,0.20703125,-0.03125,0.00341796875,-0.0440673828125,-0.00750732421875,0.9990234375,-0.0811974155066807,-3.6429646047978834,-0.8273495737784493
438,17.560060578000048,bno085,0.73046875,-0.16796875,9.66796875,-0.01953125,0.20703125,-0.03125,0.00299072265625,-0.03887939453125,-0.00811767578125,0.99920654296875,-0.1336148770570374,-3.048582304653101,-0.8981237794055503
439,17.600058906000072,bno085,0.234375,-0.0546875,9.62890625,-0.01171875,0.177734375,-0.0078125,0.00286865234375,-0.03411865234375,-0.0084228515625,0.9993896484375,-0.15163070389123637,-2.5030607953395356,-0.9354070761024847
440,17.640059546999964,bno085,0.38671875,0.05859375,9.62890625,-0.00390625,0.154296875,0.01171875,0.00286865234375,-0.03411865234375,-0.0084228515625,0.9993896484375,-0.15163070389123637,-2.5030607953395356,-0.9354070761024847
441,17.680058059999965,bno085,0.5,0.09765625,9.62890625,0.0,0.201171875,0.009765625,0.00286865234375,-0.0302734375,-0.008056640625,0.99951171875,-0.155532446462028,-2.0619585040676354,-0.895756026153287
442,17.720058127000016,bno085,0.30859375,0.05859375,9.625,0.0,0.201171875,0.009765625,0.0028076171875,-0.025390625,-0.0076904296875,0.9996337890625,-0.167028120168055,-1.5019924364726573,-0.8566193831169289
443,17.760058157999993,bno085,0.2734375,0.0234375,9.6640625,-0.009765625,0.20703125,0.005859375,0.00262451171875,-0.0201416015625,-0.00732421875,0.999755859375,-0.19242111026161307,-0.9002754284570473,-0.817595898311502
444,17.80005815200002,bno085,-0.1484375,0.09765625,9.6640625,-0.0078125,0.166015625,0.001953125,0.00244140625,-0.01556396484375,-0.0072021484375,0.9998779296875,-0.21709871470175504,-0.37579460281406524,-0.8064008052307425
445,17.840056904999983,bno085,-0.1484375,0.05859375,9.66796875,0.0,0.09375,0.00390625,0.00244140625,-0.01556396484375,-0.0072021484375,0.9998779296875,-0.21709871470175504,-0.37579460281406524,-0.8064008052307425
446,17.880057695000005,bno085,0.08203125,0.05859375,9.62890625,-0.005859375,0.06640625,0.005859375,0.0023193359375,-0.012939453125,-0.00714111328125,0.9998779296875,-0.23318344471521998,-0.07501969680707726,-0.801043527687414
447,17.92005752199998,bno085,-0.07421875,0.05859375,9.66796875,-0.005859375,0.06640625,0.005859375,0.00225830078125,-0.0111083984375,-0.00701904296875,0.99993896484375,-0.24148447997744615,0.13480079451461616,-0.7883336749513508
448,17.960057608000056,bno085,0.1171875,0.05859375,9.6640625,-0.00390625,0.06640625,0.00390625,0.002197265625,-0.00946044921875,-0.00689697265625,0.99993896484375,-0.24960567868451625,0.32371208893598824,-0.7754759667612683
449,18.000059898000018,bno085,-0.07421875,0.09765625,9.6640625,0.00390625,0.0625,0.005859375,0.002197265625,-0.007568359375,-0.00677490234375,0.99993896484375,-0.25088206788801765,0.5406374240867164,-0.7628854860868395
450,18.040057559000047,bno085,-0.07421875,0.05859375,9.66796875,-0.005859375,0.0546875,0.009765625,0.002197265625,-0.007568359375,-0.00677490234375,0.99993896484375,-0.25088206788801765,0.5406374240867164,-0.7628854860868395
451,18.08005751600001,bno085,-0.07421875,0.09765625,9.6640625,0.0,0.05859375,0.005859375,0.00213623046875,-0.0059814453125,-0.00653076171875,0.99993896484375,-0.25860623559612983,0.7226280323887836,-0.7360455760912076
452,18.12005784300004,bno085,-0.07421875,0.05859375,9.66796875,0.0,0.05859375,0.005859375,0.0020751953125,-0.00439453125,-0.00634765625,0.99993896484375,-0.2663851737336268,0.9045671743687342,-0.7162283851682412
453,18.160056725000004,bno085,-0.03515625,0.09765625,9.66796875,-0.001953125,0.0625,0.0,0.00201416015625,-0.002685546875,-0.00634765625,1.0,-0.2746344257171484,1.1003280565077276,-0.7175638188568086
454,18.20005568199997,bno085,-0.1484375,0.09765625,9.6640625,-0.0078125,0.07421875,-0.001953125,0.00201416015625,-0.00067138671875,-0.00634765625,1.0,-0.2761343596922799,1.33113039758504,-0.71913351434936
455,18.240057397999976,bno085,-0.07421875,0.0234375,9.62890625,-0.01171875,0.087890625,-0.001953125,0.001953125,0.00128173828125,-0.00634765625,1.0,-0.2845877896595387,1.5548929488224488,-0.7206757649735207
456,18.280061372999967,bno085,-0.265625,0.05859375,9.62890625,-0.005859375,0.078125,-0.00390625,0.001953125,0.00128173828125,-0.00634765625,1.0,-0.2845877896595387,1.5548929488224488,-0.7206757649735207
457,18.320057312000017,bno085,-0.265625,0.0234375,9.66796875,0.0,0.064453125,0.001953125,0.001953125,0.00360107421875,-0.00640869140625,1.0,-0.28652382032539364,1.8206184270056323,-0.7295261684502917
458,18.360056676,bno085,-0.37890625,0.0234375,9.625,0.0,0.064453125,0.001953125,0.00189208984375,0.005615234375,-0.00640869140625,0.99993896484375,-0.29506127341453203,2.0513448244431114,-0.7311426304377032
459,18.400057392000008,bno085,-0.37890625,0.0234375,9.625,-0.005859375,0.04296875,0.00390625,0.00189208984375,0.007080078125,-0.00628662109375,0.99993896484375,-0.29573485036403185,2.219300395155616,-0.7183421198671711
460,18.44005808899999,bno085,-0.37890625,0.0234375,9.6640625,0.0,0.0234375,0.001953125,0.0018310546875,0.008056640625,-0.0062255859375,0.99993896484375,-0.3032346902672067,2.331214220315108,-0.7121996309020633
461,18.48005769400004,bno085,-0.33984375,0.0234375,9.6640625,-0.00390625,0.01171875,0.0,0.0018310546875,0.008056640625,-0.0062255859375,0.99993896484375,-0.3032346902672067,2.331214220315108,-0.7121996309020633
462,18.52005722499996,bno085,-0.33984375,0.05859375,9.625,-0.00390625,-0.00390625,-0.001953125,0.00177001953125,0.0087890625,-0.0062255859375,0.99993896484375,-0.31077600618916246,2.41510423367851,-0.7128684072141468
463,18.56005738500005,bno085,-0.3046875,0.05859375,9.66796875,-0.00390625,-0.00390625,-0.001953125,0.001708984375,0.00927734375,-0.0062255859375,0.99993896484375,-0.3181364642507057,2.471017333090168,-0.7133423778373579
464,18.60006006399999,bno085,-0.41796875,0.0234375,9.625,0.01171875,-0.01953125,-0.033203125,0.0018310546875,0.0093994140625,-0.006591796875,0.99993896484375,-0.3056601163172738,2.48479990361683,-0.7553189820957243
465,18.64005918800001,bno085,-0.3046875,0.0234375,9.66796875,0.001953125,-0.013671875,-0.005859375,0.00189208984375,0.00946044921875,-0.0067138671875,0.99993896484375,-0.2991876194460699,2.4917436614872757,-0.7693057502607589
466,18.680059626000002,bno085,-0.265625,0.05859375,9.66796875,0.0,-0.015625,-0.0078125,0.00189208984375,0.00946044921875,-0.0067138671875,0.99993896484375,-0.2991876194460699,2.4917436614872757,-0.7693057502607589
467,18.720057286000042,bno085,-0.265625,0.05859375,9.66796875,0.00390625,-0.015625,-0.001953125,0.00189208984375,0.009521484375,-0.0068359375,0.99993896484375,-0.29971338355407384,2.4986406566891457,-0.7833581081829424
468,18.760056947000066,bno085,-0.265625,0.05859375,9.66796875,0.00390625,-0.015625,-0.001953125,0.001953125,0.009521484375,-0.00689697265625,0.99993896484375,-0.29295517479819605,2.4986405714975537,-0.790292732181953
469,18.80005738500006,bno085,-0.2265625,0.05859375,9.6640625,0.001953125,-0.01171875,-0.00390625,0.00201416015625,0.00946044921875,-0.0069580078125,0.99993896484375,-0.286146390382038,2.4916465366156286,-0.7971773773101634
470,18.840057416000036,bno085,-0.265625,0.0234375,9.62890625,0.0,-0.0078125,-0.001953125,0.0020751953125,0.0096435546875,-0.0069580078125,0.99993896484375,-0.27930141302988565,2.5126802057913413,-0.7972603393639274
471,18.880057743000066,bno085,-0.2265625,0.0234375,9.625,-0.00390625,0.00390625,0.0,0.0020751953125,0.0096435546875,-0.0069580078125,0.99993896484375,-0.27930141302988565,2.5126802057913413,-0.7972603393639274
472,18.920058978000043,bno085,-0.1875,0.05859375,9.6640625,0.001953125,0.01171875,0.001953125,0.00201416015625,0.00994873046875,-0.0069580078125,0.99993896484375,-0.2865510476528476,2.5476052584318976,-0.7975777154475968
473,18.960058378999975,bno085,-0.2265625,0.05859375,9.6640625,0.001953125,0.01171875,0.001953125,0.00213623046875,0.01025390625,-0.0069580078125,0.99993896484375,-0.27281018663069184,2.5826786273708917,-0.7976856409395776
474,19.000058557999978,bno085,-0.265625,0.0234375,9.66796875,0.0,0.005859375,-0.001953125,0.002197265625,0.01068115234375,-0.0069580078125,0.99993896484375,-0.26616711882747,2.6316934009385666,-0.7979567078251912
475,19.04005738500007,bno085,-0.265625,0.05859375,9.66796875,0.0,0.005859375,0.0,0.00225830078125,0.01104736328125,-0.0069580078125,0.99993896484375,-0.2594732938744276,2.673713865900074,-0.798173788552448
476,19.08005821200004,bno085,-0.265625,0.05859375,9.62890625,-0.001953125,0.00390625,0.0,0.00225830078125,0.01104736328125,-0.0069580078125,0.99993896484375,-0.2594732938744276,2.673713865900074,-0.798173788552448
477,19.120058557999982,bno085,-0.265625,0.05859375,9.62890625,0.0,0.001953125,-0.001953125,0.00225830078125,0.0113525390625,-0.0069580078125,0.99993896484375,-0.2597262055109686,2.7086903200421917,-0.7984169854893908
478,19.16005988500001,bno085,-0.3046875,0.05859375,9.62890625,0.0,0.001953125,-0.001953125,0.00225830078125,0.01153564453125,-0.0069580078125,0.9998779296875,-0.25989260342904574,2.729596184343748,-0.7985136229641575
479,19.200057397000023,bno085,-0.33984375,0.05859375,9.625,0.0,0.01171875,0.0,0.00225830078125,0.0118408203125,-0.0069580078125,0.9998779296875,-0.26014569369178386,2.7645712839513887,-0.7987573030919092
480,19.240058224999984,bno085,-0.1484375,0.05859375,9.62890625,-0.00390625,0.025390625,0.001953125,0.00225830078125,0.01226806640625,-0.0069580078125,0.9998779296875,-0.2605002081418806,2.813537271832136,-0.7990989847838252
481,19.28005838499996,bno085,-0.41796875,0.05859375,9.6640625,0.005859375,-0.001953125,0.001953125,0.00225830078125,0.01226806640625,-0.0069580078125,0.9998779296875,-0.2605002081418806,2.813537271832136,-0.7990989847838252
482,19.320058990000007,bno085,-0.37890625,0.0234375,9.625,0.001953125,-0.02734375,0.001953125,0.0023193359375,0.0123291015625,-0.0069580078125,0.9998779296875,-0.253553308598468,2.8205819403361585,-0.7990619563463227
483,19.360060557999986,bno085,-0.1875,0.05859375,9.625,0.001953125,-0.02734375,0.001953125,0.00238037109375,0.01190185546875,-0.00689697265625,0.9998779296875,-0.24594651658855607,2.7717107308391156,-0.7916382913030218
484,19.40006134800001,bno085,-0.11328125,0.05859375,9.6640625,-0.00390625,-0.005859375,0.0,0.00244140625,0.0118408203125,-0.00689697265625,0.9998779296875,-0.2388990534223114,2.7647646287983676,-0.791507942413655
485,19.440059304999977,bno085,-0.2265625,0.05859375,9.625,-0.005859375,0.03125,-0.001953125,0.00238037109375,0.01263427734375,-0.00689697265625,0.9998779296875,-0.2465485442757266,2.85565339574823,-0.7922137888217593
486,19.480058391000057,bno085,-0.5703125,0.0234375,9.6640625,0.00390625,0.0,-0.001953125,0.00238037109375,0.01263427734375,-0.00689697265625,0.9998779296875,-0.2465485442757266,2.85565339574823,-0.7922137888217593
487,19.520058367000047,bno085,-0.265625,0.05859375,9.66796875,-0.005859375,-0.00390625,-0.001953125,0.00238037109375,0.0130615234375,-0.00689697265625,0.9998779296875,-0.24690001202186262,2.9046213675785815,-0.7925503279742587
488,19.56005750899999,bno085,-0.265625,0.0234375,9.62890625,-0.005859375,-0.00390625,-0.001953125,0.0023193359375,0.0130615234375,-0.00689697265625,0.9998779296875,-0.2538979649281487,2.9045723027299792,-0.7926413574555397
489,19.60006316900001,bno085,-0.265625,0.0234375,9.66796875,0.0,0.0,0.0,0.00238037109375,0.01312255859375,-0.00689697265625,0.9998779296875,-0.24695023890043186,2.9116168801511355,-0.7925984551206203
490,19.640057274000014,bno085,-0.41796875,0.05859375,9.6640625,0.00390625,-0.00390625,0.0,0.00244140625,0.0130615234375,-0.00689697265625,0.9998779296875,-0.23990205488955674,2.9046704324217414,-0.7924592984850903
491,19.680060378999997,bno085,-0.11328125,0.05859375,9.6640625,-0.00390625,0.005859375,0.0,0.00244140625,0.0130615234375,-0.00689697265625,0.9998779296875,-0.23990205488955674,2.9046704324217414,-0.7924592984850903
492,19.720058205999976,bno085,-0.265625,0.0234375,9.62890625,-0.001953125,0.0,-0.001953125,0.00250244140625,0.01318359375,-0.00689697265625,0.9998779296875,-0.23300441984247522,2.9187105605212884,-0.7924628240355359
493,19.760058200000003,bno085,-0.1875,0.05859375,9.625,-0.001953125,0.0,-0.001953125,0.00250244140625,0.0133056640625,-0.0069580078125,0.9998779296875,-0.2333697424458246,2.9326570288797793,-0.7995604111199164
494,19.800059359999977,bno085,-0.2265625,0.05859375,9.6640625,0.001953125,0.01953125,-0.001953125,0.00244140625,0.01385498046875,-0.00701904296875,0.9998779296875,-0.24109257896435227,2.995523667647038,-0.8070871302115648
495,19.84005829900002,bno085,-0.2265625,0.05859375,9.6640625,0.001953125,0.01953125,-0.001953125,0.00238037109375,0.01446533203125,-0.007080078125,0.9998779296875,-0.24887569441585827,3.065387289438584,-0.8146719375410212
496,19.880056440999965,bno085,-0.33984375,0.0234375,9.625,0.0,0.029296875,-0.001953125,0.00238037109375,0.01446533203125,-0.007080078125,0.9998779296875,-0.24887569441585827,3.065387289438584,-0.8146719375410212
497,19.920058026999982,bno085,-0.37890625,0.0234375,9.625,-0.001953125,0.03125,0.0,0.00238037109375,0.0152587890625,-0.007080078125,0.9998779296875,-0.24954701816529726,3.156337913033058,-0.8153041426965169
498,19.960057688000006,bno085,-0.33984375,0.05859375,9.625,-0.001953125,0.03125,0.0,0.00238037109375,0.01593017578125,-0.007080078125,0.99981689453125,-0.25013107933108336,3.2331886193087764,-0.8157902094511672
499,20.00005705199999,bno085,-0.37890625,0.05859375,9.625,0.0,0.01953125,0.0,0.0023193359375,0.0164794921875,-0.00714111328125,0.99981689453125,-0.2578835093467119,3.296059215893266,-0.8233504046581451
500,20.040057175000015,bno085,-0.33984375,0.05859375,9.6640625,-0.001953125,0.01171875,0.0,0.00238037109375,0.01690673828125,-0.007080078125,0.99981689453125,-0.25095913398162095,3.345131890379526,-0.8165735265854072
501,20.080057872999987,bno085,-0.37890625,0.05859375,9.6640625,-0.00390625,0.013671875,0.0,0.00238037109375,0.01690673828125,-0.007080078125,0.99981689453125,-0.25095913398162095,3.345131890379526,-0.8165735265854072
502,20.12005762600006,bno085,-0.3046875,0.0234375,9.66796875,-0.00390625,0.017578125,0.001953125,0.0023193359375,0.01727294921875,-0.007080078125,0.99981689453125,-0.2582699872540533,3.3870618709999434,-0.8169886898488778
503,20.160056935000057,bno085,-0.33984375,0.05859375,9.625,-0.00390625,0.017578125,0.001953125,0.00225830078125,0.017822265625,-0.00701904296875,0.99981689453125,-0.26544055574773007,3.450030528068416,-0.8105536564449223
504,20.200056688000018,bno085,-0.41796875,0.0234375,9.625,0.00390625,0.02734375,0.001953125,0.002197265625,0.01861572265625,-0.0069580078125,0.99981689453125,-0.2728091928612234,3.5409922171080876,-0.8043287991854857
505,20.240056552000055,bno085,-0.37890625,0.05859375,9.625,-0.00390625,0.0234375,0.001953125,0.00213623046875,0.019287109375,-0.0069580078125,0.99981689453125,-0.2803739046888887,3.6179169218139373,-0.8050209618509745
506,20.28005817600001,bno085,-0.37890625,0.0234375,9.6640625,0.00390625,0.0234375,0.001953125,0.00213623046875,0.019287109375,-0.0069580078125,0.99981689453125,-0.2803739046888887,3.6179169218139373,-0.8050209618509745
507,20.320057002999988,bno085,-0.45703125,0.0234375,9.625,-0.005859375,0.0,0.0,0.002197265625,0.0198974609375,-0.00689697265625,0.999755859375,-0.27358794530223157,3.6878553955923183,-0.7983369298698053
508,20.36005775600006,bno085,-0.45703125,0.0234375,9.6640625,-0.005859375,0.0,0.0,0.002197265625,0.0201416015625,-0.00689697265625,0.999755859375,-0.27379140588898665,3.7158467777696957,-0.7985403052494978
509,20.400056732000053,bno085,-0.37890625,0.05859375,9.625,0.0,-0.009765625,0.0,0.002197265625,0.02001953125,-0.00689697265625,0.999755859375,-0.2736896658173795,3.701851018545302,-0.7984385918784761
510,20.440057781000064,bno085,-0.37890625,0.0234375,9.6640625,0.001953125,-0.00390625,-0.001953125,0.00225830078125,0.02001953125,-0.00689697265625,0.999755859375,-0.2666881557295281,3.7019005388651736,-0.7982987294097131
511,20.48005781200004,bno085,-0.37890625,0.0234375,9.6640625,0.001953125,0.00390625,-0.001953125,0.00225830078125,0.02001953125,-0.00689697265625,0.999755859375,-0.2666881557295281,3.7019005388651736,-0.7982987294097131
512,20.520057806000068,bno085,-0.41796875,0.05859375,9.6640625,0.00390625,0.009765625,0.001953125,0.0023193359375,0.0201416015625,-0.00689697265625,0.999755859375,-0.25978820212922366,3.7159458345299528,-0.7982588649717273
513,20.560058744000003,bno085,-0.41796875,0.0234375,9.625,0.00390625,0.009765625,0.001953125,0.00225830078125,0.0203857421875,-0.00689697265625,0.999755859375,-0.2669931642142726,3.7438882528915984,-0.7986014505988719
514,20.60006007100003,bno085,-0.41796875,0.0234375,9.625,-0.005859375,0.0078125,-0.001953125,0.00225830078125,0.0206298828125,-0.0069580078125,0.999755859375,-0.267513101569706,3.7718343265349175,-0.805811643206872
515,20.64005773200006,bno085,-0.45703125,0.05859375,9.6640625,0.0,0.005859375,0.0,0.002197265625,0.02081298828125,-0.00689697265625,0.999755859375,-0.27435132671084134,3.7928259264499977,-0.7991006478162719
516,20.680059837000044,bno085,-0.37890625,0.05859375,9.6640625,0.001953125,-0.001953125,0.0,0.002197265625,0.02081298828125,-0.00689697265625,0.999755859375,-0.27435132671084134,3.7928259264499977,-0.7991006478162719
517,20.720058978999987,bno085,-0.37890625,0.05859375,9.6640625,-0.00390625,-0.005859375,0.001953125,0.002197265625,0.02081298828125,-0.00689697265625,0.999755859375,-0.27435132671084134,3.7928259264499977,-0.7991006478162719
518,20.760058009999966,bno085,-0.37890625,0.05859375,9.6640625,-0.00390625,-0.005859375,0.001953125,0.002197265625,0.020751953125,-0.0068359375,0.999755859375,-0.2739830304337161,3.7858744825047226,-0.7920414241444051
519,20.800057782000067,bno085,-0.37890625,0.05859375,9.625,0.00390625,0.01171875,0.0,0.002197265625,0.02093505859375,-0.0068359375,0.999755859375,-0.2741345338411937,3.806869428360429,-0.7921943060816554
520,20.84005727600004,bno085,-0.41796875,0.05859375,9.6640625,0.00390625,0.005859375,0.0,0.0023193359375,0.02099609375,-0.0068359375,0.999755859375,-0.26018056042304666,3.8139661292878095,-0.7919518342889836
521,20.880058213999973,bno085,-0.37890625,0.0234375,9.625,0.001953125,0.0078125,0.0,0.0023193359375,0.02099609375,-0.0068359375,0.999755859375,-0.26018056042304666,3.8139661292878095,-0.7919518342889836
522,20.920057967000048,bno085,-0.45703125,0.05859375,9.625,0.005859375,-0.0078125,0.0,0.00238037109375,0.0211181640625,-0.0068359375,0.999755859375,-0.25327906929544425,3.828012190857999,-0.7919045421259924
523,20.960057794000022,bno085,-0.41796875,0.0234375,9.625,0.005859375,-0.0078125,0.0,0.00244140625,0.02105712890625,-0.0068359375,0.999755859375,-0.2462263890249755,3.8210628820180954,-0.7917076593183002
524,21.000057696,bno085,-0.41796875,0.0234375,9.6640625,-0.00390625,0.0,-0.001953125,0.00244140625,0.02105712890625,-0.0068359375,0.999755859375,-0.2462263890249755,3.8210628820180954,-0.7917076593183002
525,21.040057392999984,bno085,-0.49609375,0.05859375,9.625,0.0078125,-0.005859375,0.001953125,0.00262451171875,0.02105712890625,-0.00677490234375,0.999755859375,-0.22489993330070238,3.8212541881713697,-0.7842576633633213
526,21.080057701999976,bno085,-0.37890625,0.05859375,9.6640625,0.00390625,0.00390625,-0.001953125,0.00262451171875,0.02105712890625,-0.00677490234375,0.999755859375,-0.22489993330070238,3.8212541881713697,-0.7842576633633213
527,21.120057547999977,bno085,-0.41796875,0.05859375,9.6640625,0.00390625,0.0078125,0.0,0.002685546875,0.02117919921875,-0.0068359375,0.999755859375,-0.21831744639161824,3.835256543300413,-0.7912141996289359
528,21.160058338,bno085,-0.41796875,0.05859375,9.6640625,0.00390625,0.0078125,0.0,0.00274658203125,0.02142333984375,-0.0068359375,0.999755859375,-0.21151549146052523,3.863300195130771,-0.7912549650558303
529,21.20005727700004,bno085,-0.37890625,0.05859375,9.625,0.001953125,0.013671875,0.001953125,0.00274658203125,0.0218505859375,-0.0068359375,0.999755859375,-0.2118664515310382,3.9122919474653597,-0.7915858221280384
530,21.24005721499998,bno085,-0.33984375,0.05859375,9.6640625,0.0,0.041015625,0.0,0.002685546875,0.02276611328125,-0.0068359375,0.99969482421875,-0.21964046393573122,4.017072536154458,-0.7924067347321687
531,21.28005595000002,bno085,-0.41796875,0.05859375,9.625,-0.00390625,0.06640625,-0.001953125,0.002685546875,0.02276611328125,-0.0068359375,0.99969482421875,-0.21964046393573122,4.017072536154458,-0.7924067347321687
532,21.32005775799996,bno085,-0.33984375,0.0234375,9.625,-0.00390625,0.09765625,0.00390625,0.00262451171875,0.02435302734375,-0.0068359375,0.99969482421875,-0.2279532147611402,4.199012920130697,-0.7938274730639949
533,21.36005771500004,bno085,-0.6875,0.3671875,9.6640625,-0.00390625,0.09765625,0.00390625,0.00225830078125,0.02655029296875,-0.00628662109375,0.9996337890625,-0.26859997785326295,4.4509800730842395,-0.7335353182588052
534,21.400056801999995,bno085,-0.72265625,0.0234375,9.625,-0.01171875,0.130859375,0.005859375,0.00201416015625,0.029052734375,-0.0068359375,0.99957275390625,-0.3019631736954843,4.737251753579679,-0.7995496078122389
535,21.440057036999974,bno085,-0.72265625,0.0234375,9.625,-0.005859375,0.080078125,0.0078125,0.00189208984375,0.031005859375,-0.006591796875,0.99951171875,-0.31608251064292076,4.961245440019049,-0.773598403789045
536,21.480059049000033,bno085,-0.80078125,0.05859375,9.62890625,0.0,0.04296875,0.001953125,0.00189208984375,0.031005859375,-0.006591796875,0.99951171875,-0.31608251064292076,4.961245440019049,-0.773598403789045
537,21.520058801999994,bno085,-0.6484375,0.0234375,9.62890625,-0.0078125,0.021484375,0.001953125,0.00189208984375,0.0321044921875,-0.00653076171875,0.99945068359375,-0.3165969109615453,5.087150262387847,-0.7675231693090271
538,21.56005863000007,bno085,-0.609375,0.0234375,9.62890625,-0.0078125,0.021484375,0.001953125,0.00177001953125,0.03265380859375,-0.0064697265625,0.99945068359375,-0.33066390998097817,5.150147000349311,-0.7614584229926828
539,21.600060160999988,bno085,-0.53125,0.0234375,9.62890625,-0.005859375,0.03515625,0.001953125,0.00177001953125,0.0335693359375,-0.00634765625,0.9993896484375,-0.33060037394728187,5.25509349868603,-0.7482130175980217
540,21.640060043000062,bno085,-0.53125,0.05859375,9.62890625,-0.0078125,0.09765625,0.005859375,0.00164794921875,0.03582763671875,-0.00616455078125,0.99932861328125,-0.34516880945710476,5.514141634297589,-0.7296841894120006
541,21.680057260000012,bno085,-0.609375,0.0234375,9.62890625,-0.009765625,0.150390625,0.001953125,0.00164794921875,0.03582763671875,-0.00616455078125,0.99932861328125,-0.34516880945710476,5.514141634297589,-0.7296841894120006
542,21.720057994000058,bno085,-0.72265625,0.0234375,9.625,-0.0078125,0.1796875,0.009765625,0.00146484375,0.03948974609375,-0.006103515625,0.99920654296875,-0.36866243540677923,5.934048402846072,-0.726847483640775
543,21.76005846999999,bno085,-0.5703125,0.09765625,9.58984375,-0.0078125,0.1796875,0.009765625,0.001220703125,0.0438232421875,-0.005859375,0.9990234375,-0.3982672915109364,6.431059524351625,-0.7040408483641062
544,21.800058001000025,bno085,-0.953125,0.0234375,9.58984375,-0.0234375,0.255859375,0.00390625,0.00079345703125,0.0499267578125,-0.00579833984375,0.99871826171875,-0.45171128540111705,7.130846069068278,-0.7054318283040218
545,21.840058569000007,bno085,-0.83984375,0.13671875,9.58984375,-0.017578125,0.271484375,-0.001953125,0.0003662109375,0.05657958984375,-0.00579833984375,0.99835205078125,-0.5062714833511051,7.893848547857442,-0.7151713133812106
546,21.880059321999966,bno085,-1.03125,-0.1328125,9.58984375,-0.009765625,0.306640625,0.0078125,0.0003662109375,0.05657958984375,-0.00579833984375,0.99835205078125,-0.5062714833511051,7.893848547857442,-0.7151713133812106
547,21.920056612000053,bno085,-1.375,0.13671875,9.5078125,-0.048828125,0.298828125,0.0546875,0.0001220703125,0.06402587890625,-0.0054931640625,0.9979248046875,-0.5374630154408098,8.748902468127495,-0.689986237212771
548,21.960059290999993,bno085,-1.375,-0.09375,9.51171875,-0.048828125,0.298828125,0.0546875,-0.00030517578125,0.071533203125,-0.0050048828125,0.9974365234375,-0.5875429256907473,9.611490418590234,-0.6456172765845617
549,22.000057748000017,bno085,-1.8359375,-0.015625,9.5078125,-0.02734375,0.298828125,0.009765625,-0.0008544921875,0.07879638671875,-0.00482177734375,0.99688720703125,-0.6547211696520927,10.44593204961579,-0.638181609351132
550,22.04006842800004,bno085,-1.8359375,-0.09375,9.51171875,-0.029296875,0.21875,-0.00390625,-0.00140380859375,0.084228515625,-0.00482177734375,0.9964599609375,-0.7228352354912175,11.0702535581054,-0.6505887098667872
551,22.08005886600006,bno085,-1.7578125,-0.0546875,9.5078125,-0.005859375,0.1640625,-0.009765625,-0.00152587890625,0.08819580078125,-0.0050048828125,0.99609375,-0.7427383575001034,11.526017330473683,-0.6785890305305591
552,22.12005573099998,bno085,-1.94921875,-0.1328125,9.46875,0.025390625,0.126953125,-0.08984375,-0.00152587890625,0.08819580078125,-0.0050048828125,0.99609375,-0.7427383575001034,11.526017330473683,-0.6785890305305591
553,22.160055242999988,bno085,-1.52734375,0.09765625,9.5078125,0.025390625,0.126953125,-0.08984375,-0.0013427734375,0.091552734375,-0.0064697265625,0.99578857421875,-0.7442649923113901,11.910585656236464,-0.852159212466018
554,22.200055273999965,bno085,-1.91015625,-0.015625,9.46875,0.00390625,0.16015625,-0.01171875,-0.00140380859375,0.095458984375,-0.0064697265625,0.99542236328125,-0.7555143592357817,12.360094716232252,-0.8584961916802489
