sample,time_s,sensor,accel_x_mps2,accel_y_mps2,accel_z_mps2,gyro_x_radps,gyro_y_radps,gyro_z_radps,quat_i,quat_j,quat_k,quat_real,roll_deg,pitch_deg,yaw_deg
0,0.04005722200008677,bno085,0.203125,0.234375,9.95703125,-0.001953125,-0.00390625,0.0,0.01495361328125,-0.00299072265625,0.48095703125,0.8765869140625,-1.4228486484272322e-05,-7.114243242132431e-05,-4.424007964735952e-07
1,0.08005586999979641,bno085,0.203125,0.1953125,9.9140625,0.009765625,0.0,0.0,0.01531982421875,-0.0030517578125,0.49346923828125,0.86962890625,0.049598724008942996,-0.008013059765426135,1.6429774661760304
2,0.1200552410000455,bno085,0.203125,0.234375,9.91796875,0.0,0.0,0.0,0.01531982421875,-0.0030517578125,0.49346923828125,0.86962890625,0.049598724008942996,-0.008013059765426135,1.6429774661760304
3,0.1600550379998822,bno085,0.203125,0.234375,9.91796875,0.0,0.0,0.0,0.01531982421875,-0.0030517578125,0.49365234375,0.8695068359375,0.04981943290959187,-0.00777240099193755,1.6665755420967403
4,0.200054796999666,bno085,0.203125,0.234375,9.95703125,0.001953125,0.0,0.0,0.01531982421875,-0.00311279296875,0.491943359375,0.8704833984375,0.0441281899986253,-0.016319810417241273,1.4418991026215706
5,0.24005529699979888,bno085,0.203125,0.234375,9.91796875,0.001953125,0.0,0.0,0.01495361328125,-0.00335693359375,0.4893798828125,0.8719482421875,-0.009485909574874718,-0.02389060189923878,1.1055094882066556
6,0.28005527899995286,bno085,0.203125,0.234375,9.91796875,0.001953125,0.0,0.0,0.01513671875,-0.0032958984375,0.48590087890625,0.87384033203125,0.007737506568098754,-0.0333427278536957,0.6474752084712025
7,0.3200542609997683,bno085,0.203125,0.1953125,9.9140625,0.001953125,0.001953125,0.0,0.0152587890625,-0.00335693359375,0.4779052734375,0.87823486328125,0.006751575040497098,-0.05832843900750955,-0.39796364646169385
8,0.3600561129997004,bno085,0.203125,0.234375,9.91796875,0.0,0.0,0.0,0.0152587890625,-0.00335693359375,0.4779052734375,0.87823486328125,0.006751575040497098,-0.05832843900750955,-0.39796364646169385
9,0.40005444700000226,bno085,0.203125,0.234375,9.91796875,0.00390625,0.0,0.0,0.01507568359375,-0.00347900390625,0.47808837890625,0.878173828125,-0.018101686277340275,-0.060257647573848175,-0.37287218449640325
10,0.4400545210000928,bno085,0.203125,0.234375,9.91796875,0.00390625,0.0,0.0,0.01513671875,-0.00341796875,0.4781494140625,0.87811279296875,-0.008574059115559295,-0.057398167191253305,-0.3657979485894041
11,0.4800554099997498,bno085,0.203125,0.234375,9.91796875,0.0,0.0,0.0,0.01513671875,-0.00341796875,0.4781494140625,0.878173828125,-0.008498809023588322,-0.057324764853284436,-0.36398387053537695
12,0.52005439200002,bno085,0.203125,0.234375,9.95703125,0.001953125,0.001953125,0.001953125,0.01513671875,-0.00341796875,0.4781494140625,0.878173828125,-0.008498809023588322,-0.057324764853284436,-0.36398387053537695
13,0.5600545779998356,bno085,0.203125,0.234375,9.91796875,0.00390625,0.001953125,0.0,0.01513671875,-0.00341796875,0.4781494140625,0.878173828125,-0.008498809023588322,-0.057324764853284436,-0.36398387053537695
14,0.6000541889998203,bno085,0.203125,0.234375,9.91796875,0.001953125,0.0,0.001953125,0.01519775390625,-0.00335693359375,0.4781494140625,0.878173828125,0.000989988053819905,-0.054526284714298344,-0.36404463728966774
15,0.6400567079999746,bno085,0.203125,0.234375,9.95703125,0.001953125,0.0,0.001953125,0.01519775390625,-0.00335693359375,0.4781494140625,0.878173828125,0.000989988053819905,-0.054526284714298344,-0.36404463728966774
16,0.6800555229997371,bno085,0.203125,0.234375,9.91796875,0.001953125,0.0,0.001953125,0.01519775390625,-0.00335693359375,0.4781494140625,0.878173828125,0.000989988053819905,-0.054526284714298344,-0.36404463728966774
17,0.7200583750000078,bno085,0.203125,0.234375,9.91796875,0.005859375,0.0,0.0,0.0152587890625,-0.00335693359375,0.4781494140625,0.878173828125,0.007135164794945235,-0.057869645249927215,-0.3639789012980957
18,0.7600567459999183,bno085,0.203125,0.234375,9.91796875,0.0,0.0,-0.001953125,0.0152587890625,-0.00335693359375,0.4781494140625,0.878173828125,0.007135164794945235,-0.057869645249927215,-0.3639789012980957
19,0.8000554319996809,bno085,0.203125,0.234375,9.91796875,0.001953125,0.0,0.001953125,0.01519775390625,-0.00341796875,0.47808837890625,0.878173828125,-0.002468199112560123,-0.060801719723998206,-0.37286863346768706
20,0.8400542649997078,bno085,0.203125,0.234375,9.91796875,0.001953125,0.0,0.001953125,0.0152587890625,-0.00335693359375,0.47808837890625,0.878173828125,0.007020200528407106,-0.058002800247958314,-0.3729291740050199
21,0.8800560429999678,bno085,0.203125,0.234375,9.91796875,0.001953125,0.0,0.001953125,0.0152587890625,-0.00335693359375,0.47808837890625,0.878173828125,0.007020200528407106,-0.058002800247958314,-0.3729291740050199
22,0.9200556549999419,bno085,0.203125,0.234375,9.95703125,0.001953125,0.001953125,-0.001953125,0.01531982421875,-0.0032958984375,0.47808837890625,0.878173828125,0.016508632070302676,-0.055203848269703926,-0.37298853437748003
23,0.9600551739999901,bno085,0.203125,0.234375,9.95703125,-0.00390625,-0.001953125,0.001953125,0.01531982421875,-0.0032958984375,0.47808837890625,0.878173828125,0.016508632070302676,-0.055203848269703926,-0.37298853437748003
24,1.0000553959998797,bno085,0.203125,0.234375,9.91796875,-0.001953125,0.0,-0.001953125,0.0152587890625,-0.00335693359375,0.47808837890625,0.878173828125,0.007020200528407106,-0.058002800247958314,-0.3729291740050199
25,1.0400546000000759,bno085,0.203125,0.234375,9.95703125,-0.001953125,0.0,-0.001953125,0.01519775390625,-0.00335693359375,0.47808837890625,0.878173828125,0.0008750236149460791,-0.05465986629509352,-0.3729949088287656
26,1.0800565259996802,bno085,0.203125,0.1953125,9.9140625,-0.00390625,0.0,0.0,0.01513671875,-0.00335693359375,0.47808837890625,0.878173828125,-0.005270127772881219,-0.051316932521905397,-0.37306064375670533
27,1.1200568599997496,bno085,0.203125,0.1953125,9.9140625,0.005859375,-0.001953125,0.0,0.01513671875,-0.00341796875,0.47808837890625,0.878173828125,-0.008613347053590218,-0.05745877318631508,-0.3729341367462677
28,1.1600541749999138,bno085,0.203125,0.234375,9.95703125,0.00390625,0.0,-0.001953125,0.01513671875,-0.00341796875,0.47808837890625,0.878173828125,-0.008613347053590218,-0.05745877318631508,-0.3729341367462677
29,1.2000560829997085,bno085,0.203125,0.234375,9.91796875,0.005859375,-0.001953125,0.0,0.01519775390625,-0.00341796875,0.47808837890625,0.878173828125,-0.002468199112560123,-0.060801719723998206,-0.37286863346768706
30,1.240055953999672,bno085,0.203125,0.234375,9.91796875,0.005859375,-0.001953125,0.0,0.01519775390625,-0.00335693359375,0.47808837890625,0.878173828125,0.0008750236149460791,-0.05465986629509352,-0.3729949088287656
31,1.2800547130000268,bno085,0.203125,0.234375,9.91796875,-0.00390625,0.0,0.0,0.01513671875,-0.00341796875,0.47808837890625,0.878173828125,-0.008613347053590218,-0.05745877318631508,-0.3729341367462677
32,1.3200560649997897,bno085,0.203125,0.234375,9.95703125,0.001953125,0.0,0.00390625,0.01513671875,-0.00341796875,0.47808837890625,0.878173828125,-0.008613347053590218,-0.05745877318631508,-0.3729341367462677
33,1.3600554360000388,bno085,0.203125,0.234375,9.91796875,0.005859375,0.0,0.0,0.01513671875,-0.00341796875,0.47808837890625,0.878173828125,-0.008613347053590218,-0.05745877318631508,-0.3729341367462677
34,1.4000553070000024,bno085,0.203125,0.1953125,9.953125,0.005859375,-0.001953125,-0.001953125,0.01513671875,-0.00341796875,0.47808837890625,0.878173828125,-0.008613347053590218,-0.05745877318631508,-0.3729341367462677
35,1.4400559179998709,bno085,0.203125,0.234375,9.95703125,0.005859375,-0.001953125,-0.001953125,0.01513671875,-0.00341796875,0.47808837890625,0.878173828125,-0.008613347053590218,-0.05745877318631508,-0.3729341367462677
36,1.480055825999898,bno085,0.203125,0.234375,9.95703125,0.001953125,0.0,0.0,0.01519775390625,-0.00341796875,0.47808837890625,0.878173828125,-0.002468199112560123,-0.060801719723998206,-0.37286863346768706
37,1.520055344999946,bno085,0.203125,0.234375,9.91796875,0.005859375,0.001953125,-0.001953125,0.0152587890625,-0.00335693359375,0.47808837890625,0.878173828125,0.007020200528407106,-0.058002800247958314,-0.3729291740050199
38,1.560054752999804,bno085,0.203125,0.234375,9.95703125,0.001953125,0.0,0.001953125,0.0152587890625,-0.00335693359375,0.47808837890625,0.878173828125,0.007020200528407106,-0.058002800247958314,-0.3729291740050199
39,1.6000553829999262,bno085,0.203125,0.234375,9.91796875,-0.00390625,0.0,0.0,0.01519775390625,-0.00335693359375,0.47808837890625,0.878173828125,0.0008750236149460791,-0.05465986629509352,-0.3729949088287656
40,1.6400620679996791,bno085,0.203125,0.1953125,9.953125,-0.00390625,0.0,0.0,0.01519775390625,-0.00341796875,0.47808837890625,0.878173828125,-0.002468199112560123,-0.060801719723998206,-0.37286863346768706
41,1.6800561979998747,bno085,0.203125,0.1953125,9.953125,-0.00390625,-0.001953125,-0.001953125,0.01519775390625,-0.00341796875,0.47808837890625,0.878173828125,-0.002468199112560123,-0.060801719723998206,-0.37286863346768706
42,1.7200556059997325,bno085,0.203125,0.234375,9.95703125,0.001953125,0.0,-0.001953125,0.01513671875,-0.00341796875,0.47808837890625,0.878173828125,-0.008613347053590218,-0.05745877318631508,-0.3729341367462677
43,1.7600551059999816,bno085,0.203125,0.234375,9.91796875,0.001953125,0.0,-0.001953125,0.01513671875,-0.00341796875,0.47808837890625,0.878173828125,-0.008613347053590218,-0.05745877318631508,-0.3729341367462677
44,1.80005595800003,bno085,0.203125,0.234375,9.91796875,0.0,-0.001953125,0.0,0.01513671875,-0.00341796875,0.47808837890625,0.878173828125,-0.008613347053590218,-0.05745877318631508,-0.3729341367462677
45,1.8400546439997925,bno085,0.203125,0.234375,9.91796875,0.0,-0.001953125,0.0,0.01507568359375,-0.00347900390625,0.47808837890625,0.878173828125,-0.018101686277340275,-0.060257647573848175,-0.37287218449640325
46,1.8800554029999148,bno085,0.203125,0.1953125,9.953125,0.0,0.0,0.0,0.01513671875,-0.00347900390625,0.47808837890625,0.878173828125,-0.011956567180096847,-0.06360060670433518,-0.37280691276376615
47,1.9200559589999102,bno085,0.203125,0.1953125,9.953125,0.00390625,0.001953125,-0.001953125,0.01507568359375,-0.00347900390625,0.47802734375,0.878173828125,-0.018215773065976618,-0.06039207486045858,-0.3818222059351795
48,1.9600547749996622,bno085,0.203125,0.234375,9.95703125,-0.001953125,-0.001953125,0.0,0.01507568359375,-0.00347900390625,0.47802734375,0.878173828125,-0.018215773065976618,-0.06039207486045858,-0.3818222059351795
49,2.0000554789999114,bno085,0.203125,0.234375,9.95703125,0.00390625,0.0,0.0,0.01507568359375,-0.0035400390625,0.47802734375,0.87823486328125,-0.021483732357809062,-0.06646136412613145,-0.3798796061442761
50,2.040055774999928,bno085,0.203125,0.234375,9.95703125,0.00390625,0.0,0.0,0.0150146484375,-0.0035400390625,0.47802734375,0.87823486328125,-0.02762924930408636,-0.0631188191599364,-0.37994464038034126
51,2.0800558679998176,bno085,0.203125,0.234375,9.95703125,0.001953125,0.001953125,0.0,0.01495361328125,-0.0035400390625,0.47802734375,0.87823486328125,-0.03377474104440755,-0.05977627440152045,-0.38000967471701014
52,2.120055405999665,bno085,0.203125,0.234375,9.95703125,0.0,-0.001953125,0.0,0.01495361328125,-0.00360107421875,0.47802734375,0.87823486328125,-0.03711752644517433,-0.06591848189630034,-0.3798803141262938
53,2.160055960999671,bno085,0.203125,0.234375,9.95703125,0.005859375,-0.001953125,0.001953125,0.01495361328125,-0.00360107421875,0.47802734375,0.87823486328125,-0.03711752644517433,-0.06591848189630034,-0.3798803141262938
54,2.2000547029997506,bno085,0.203125,0.234375,9.91796875,0.0,-0.001953125,0.001953125,0.014892578125,-0.00360107421875,0.47802734375,0.87823486328125,-0.04326298970834558,-0.06257592453798612,-0.379945116874897
55,2.240057350999905,bno085,0.203125,0.234375,9.91796875,0.0,-0.001953125,0.001953125,0.014892578125,-0.00360107421875,0.47802734375,0.87823486328125,-0.04326298970834558,-0.06257592453798612,-0.379945116874897
56,2.280055758999879,bno085,0.203125,0.234375,9.95703125,0.005859375,0.0,0.0,0.014892578125,-0.003662109375,0.47802734375,0.87823486328125,-0.046605773131254906,-0.06871811215007871,-0.3798148076947967
57,2.3200551479999376,bno085,0.203125,0.234375,9.95703125,0.0,0.0,-0.001953125,0.01495361328125,-0.003662109375,0.47802734375,0.87823486328125,-0.04046031322278714,-0.07206068234328719,-0.3797502366332276
58,2.3600549630000387,bno085,0.203125,0.234375,9.91796875,0.001953125,0.0,0.0,0.01495361328125,-0.003662109375,0.47802734375,0.87823486328125,-0.04046031322278714,-0.07206068234328719,-0.3797502366332276
59,2.4000556490000235,bno085,0.203125,0.234375,9.95703125,0.00390625,0.001953125,-0.001953125,0.01495361328125,-0.003662109375,0.47802734375,0.878173828125,-0.040534292616608174,-0.07213235368448215,-0.38156467593276666
60,2.440054315999987,bno085,0.203125,0.1953125,9.953125,0.00390625,0.001953125,-0.001953125,0.01495361328125,-0.003662109375,0.47802734375,0.87823486328125,-0.04046031322278714,-0.07206068234328719,-0.3797502366332276
61,2.4800554640000883,bno085,0.203125,0.234375,9.95703125,0.00390625,-0.001953125,0.0,0.0150146484375,-0.003662109375,0.47802734375,0.87823486328125,-0.034314828187314274,-0.07540325277473814,-0.37968566566993067
62,2.5200552050000624,bno085,0.203125,0.1953125,9.9140625,0.001953125,0.0,-0.001953125,0.0150146484375,-0.003662109375,0.47802734375,0.87823486328125,-0.034314828187314274,-0.07540325277473814,-0.37968566566993067
63,2.560055149999698,bno085,0.203125,0.234375,9.91796875,0.001953125,0.0,0.0,0.0150146484375,-0.003662109375,0.47802734375,0.87823486328125,-0.034314828187314274,-0.07540325277473814,-0.37968566566993067
64,2.6000553169997147,bno085,0.203125,0.234375,9.91796875,0.001953125,0.0,0.0,0.0150146484375,-0.003662109375,0.47802734375,0.87823486328125,-0.034314828187314274,-0.07540325277473814,-0.37968566566993067
65,2.640059817999827,bno085,0.203125,0.234375,9.91796875,-0.00390625,0.00390625,-0.001953125,0.01495361328125,-0.00372314453125,0.47802734375,0.87823486328125,-0.04380310150385453,-0.07820287581303742,-0.37961944223481436
66,2.680055540000012,bno085,0.203125,0.234375,9.95703125,0.005859375,0.0,0.0,0.0150146484375,-0.003662109375,0.47802734375,0.87823486328125,-0.034314828187314274,-0.07540325277473814,-0.37968566566993067
67,2.7200555780000286,bno085,0.203125,0.234375,9.95703125,-0.005859375,0.0,0.0,0.01495361328125,-0.003662109375,0.47802734375,0.87823486328125,-0.04046031322278714,-0.07206068234328719,-0.3797502366332276
68,2.7600544110000556,bno085,0.203125,0.234375,9.95703125,0.0,0.0,0.0,0.01495361328125,-0.003662109375,0.47802734375,0.87823486328125,-0.04046031322278714,-0.07206068234328719,-0.3797502366332276
69,2.8000550039996597,bno085,0.203125,0.234375,9.91796875,0.0,-0.001953125,0.0,0.014892578125,-0.00372314453125,0.47802734375,0.87823486328125,-0.04994855810731353,-0.07486029274648533,-0.3796837816109924
70,2.8400543190000462,bno085,0.203125,0.234375,9.95703125,0.0,-0.001953125,0.0,0.014892578125,-0.00372314453125,0.47796630859375,0.87823486328125,-0.05006091035762552,-0.07499600505455555,-0.38863328743914194
71,2.88005419000001,bno085,0.203125,0.1953125,9.953125,0.001953125,0.0,0.001953125,0.014892578125,-0.00372314453125,0.47802734375,0.87823486328125,-0.04994855810731353,-0.07486029274648533,-0.3796837816109924
72,2.92005426500009,bno085,0.203125,0.234375,9.91796875,-0.00390625,-0.001953125,0.0,0.014892578125,-0.00372314453125,0.47802734375,0.87823486328125,-0.04994855810731353,-0.07486029274648533,-0.3796837816109924
73,2.9600554129997363,bno085,0.203125,0.1953125,9.9140625,-0.00390625,-0.001953125,0.0,0.014892578125,-0.00372314453125,0.47802734375,0.87823486328125,-0.04994855810731353,-0.07486029274648533,-0.3796837816109924
74,3.0000549510000383,bno085,0.203125,0.234375,9.91796875,-0.00390625,-0.001953125,0.0,0.014892578125,-0.00372314453125,0.47802734375,0.87823486328125,-0.04994855810731353,-0.07486029274648533,-0.3796837816109924
75,3.040054320999843,bno085,0.203125,0.234375,9.95703125,-0.00390625,-0.001953125,0.0,0.01495361328125,-0.003662109375,0.47796630859375,0.87823486328125,-0.04057309188004222,-0.07219596790540117,-0.3886997480858966
76,3.080055061999701,bno085,0.203125,0.234375,9.95703125,0.009765625,0.0,0.0,0.01495361328125,-0.003662109375,0.47796630859375,0.87823486328125,-0.04057309188004222,-0.07219596790540117,-0.3886997480858966
77,3.1200546179998128,bno085,0.203125,0.234375,9.95703125,0.0,0.0,-0.001953125,0.01495361328125,-0.003662109375,0.47796630859375,0.87823486328125,-0.04057309188004222,-0.07219596790540117,-0.3886997480858966
78,3.1600551369997447,bno085,0.203125,0.1953125,9.953125,0.0,0.0,0.001953125,0.01495361328125,-0.003662109375,0.47796630859375,0.87823486328125,-0.04057309188004222,-0.07219596790540117,-0.3886997480858966
79,3.2000541749998774,bno085,0.203125,0.234375,9.95703125,0.0,0.0,0.0,0.01495361328125,-0.003662109375,0.47802734375,0.87823486328125,-0.04046031322278714,-0.07206068234328719,-0.3797502366332276
80,3.2400555639997037,bno085,0.203125,0.234375,9.95703125,0.0,0.0,0.0,0.01495361328125,-0.00360107421875,0.47802734375,0.87823486328125,-0.03711752644517433,-0.06591848189630034,-0.3798803141262938
81,3.280054989999826,bno085,0.203125,0.234375,9.91796875,0.00390625,0.0,0.0,0.0150146484375,-0.00360107421875,0.47802734375,0.87823486328125,-0.030972038082124734,-0.06926103947200886,-0.3798155114771256
82,3.3200543429998106,bno085,0.203125,0.234375,9.95703125,0.00390625,0.0,-0.001953125,0.0150146484375,-0.00360107421875,0.47796630859375,0.87823486328125,-0.031085243146364048,-0.06939589828700253,-0.3887650284832841
83,3.3600542320000386,bno085,0.203125,0.234375,9.95703125,0.0,0.0,0.0,0.0150146484375,-0.00360107421875,0.47796630859375,0.87823486328125,-0.031085243146364048,-0.06939589828700253,-0.3887650284832841
84,3.4000540839997484,bno085,0.203125,0.234375,9.95703125,0.0,0.0,0.0,0.0150146484375,-0.0035400390625,0.47796630859375,0.87823486328125,-0.027742880941432378,-0.06325367781014354,-0.3888941615047255
85,3.440054546999818,bno085,0.203125,0.234375,9.95703125,0.0,0.0,0.0,0.01495361328125,-0.0035400390625,0.47796630859375,0.87823486328125,-0.03388837284610715,-0.059911559636715316,-0.3889591944771183
86,3.4800556959999085,bno085,0.203125,0.1953125,9.9140625,0.0,0.0,0.0,0.01495361328125,-0.0035400390625,0.47796630859375,0.87823486328125,-0.03388837284610715,-0.059911559636715316,-0.3889591944771183
87,3.520054973999777,bno085,0.203125,0.234375,9.95703125,0.0,0.0,0.0,0.01495361328125,-0.0035400390625,0.47796630859375,0.87823486328125,-0.03388837284610715,-0.059911559636715316,-0.3889591944771183
88,3.5600551229999837,bno085,0.203125,0.234375,9.91796875,0.0,0.0,0.0,0.01495361328125,-0.0035400390625,0.47796630859375,0.87823486328125,-0.03388837284610715,-0.059911559636715316,-0.3889591944771183
89,3.600055067000085,bno085,0.203125,0.234375,9.91796875,0.0,0.0,0.0,0.01495361328125,-0.0035400390625,0.47796630859375,0.87823486328125,-0.03388837284610715,-0.059911559636715316,-0.3889591944771183
90,3.6400605310000174,bno085,0.203125,0.234375,9.95703125,0.0,0.0,0.0,0.01495361328125,-0.0035400390625,0.47796630859375,0.87823486328125,-0.03388837284610715,-0.059911559636715316,-0.3889591944771183
91,3.6800598830000126,bno085,0.203125,0.234375,9.91796875,0.001953125,-0.001953125,0.0,0.01495361328125,-0.0035400390625,0.47802734375,0.87823486328125,-0.03377474104440755,-0.05977627440152045,-0.38000967471701014
92,3.72005917999968,bno085,0.203125,0.234375,9.95703125,0.00390625,0.001953125,-0.001953125,0.0150146484375,-0.0035400390625,0.47802734375,0.87823486328125,-0.02762924930408636,-0.0631188191599364,-0.37994464038034126
93,3.760057568999855,bno085,0.203125,0.234375,9.95703125,-0.00390625,0.001953125,0.0,0.0150146484375,-0.0035400390625,0.47802734375,0.87823486328125,-0.02762924930408636,-0.0631188191599364,-0.37994464038034126
94,3.8000599950000833,bno085,0.203125,0.234375,9.91796875,-0.001953125,-0.001953125,0.0,0.0150146484375,-0.00347900390625,0.47802734375,0.87823486328125,-0.024286461726590595,-0.056976591767965164,-0.3800730523825477
95,3.8400578659998246,bno085,0.203125,0.234375,9.95703125,-0.001953125,-0.001953125,0.0,0.0150146484375,-0.0035400390625,0.47796630859375,0.87823486328125,-0.027742880941432378,-0.06325367781014354,-0.3888941615047255
96,3.8800586259999363,bno085,0.203125,0.234375,9.95703125,-0.00390625,0.0,0.0,0.01495361328125,-0.0035400390625,0.47802734375,0.87823486328125,-0.03377474104440755,-0.05977627440152045,-0.38000967471701014
97,3.92005899600008,bno085,0.203125,0.234375,9.91796875,0.001953125,0.001953125,0.0,0.0150146484375,-0.0035400390625,0.47802734375,0.87823486328125,-0.02762924930408636,-0.0631188191599364,-0.37994464038034126
98,3.960057737999705,bno085,0.203125,0.234375,9.91796875,0.001953125,0.0,-0.001953125,0.0150146484375,-0.0035400390625,0.47802734375,0.87823486328125,-0.02762924930408636,-0.0631188191599364,-0.37994464038034126
99,4.000057904999721,bno085,0.203125,0.234375,9.95703125,0.001953125,0.0,-0.001953125,0.0150146484375,-0.0035400390625,0.47802734375,0.87823486328125,-0.02762924930408636,-0.0631188191599364,-0.37994464038034126
100,4.040057163999791,bno085,0.203125,0.234375,9.95703125,0.001953125,0.0,-0.001953125,0.0150146484375,-0.0035400390625,0.47796630859375,0.87823486328125,-0.027742880941432378,-0.06325367781014354,-0.3888941615047255
101,4.080057979999765,bno085,0.203125,0.234375,9.91796875,0.0,0.0,-0.00390625,0.0150146484375,-0.0035400390625,0.47796630859375,0.87823486328125,-0.027742880941432378,-0.06325367781014354,-0.3888941615047255
102,4.120057016999908,bno085,0.203125,0.234375,9.95703125,0.0,0.001953125,-0.001953125,0.0150146484375,-0.0035400390625,0.47796630859375,0.87823486328125,-0.027742880941432378,-0.06325367781014354,-0.3888941615047255
103,4.160057647000031,bno085,0.203125,0.234375,9.95703125,-0.001953125,0.001953125,0.0,0.0150146484375,-0.0035400390625,0.47796630859375,0.87823486328125,-0.027742880941432378,-0.06325367781014354,-0.3888941615047255
104,4.200057313999878,bno085,0.203125,0.234375,9.91796875,0.00390625,0.0,0.001953125,0.0150146484375,-0.0035400390625,0.47796630859375,0.87823486328125,-0.027742880941432378,-0.06325367781014354,-0.3888941615047255
105,4.240058425999905,bno085,0.203125,0.234375,9.91796875,0.00390625,0.0,0.001953125,0.0150146484375,-0.00347900390625,0.47796630859375,0.87823486328125,-0.02440051993933474,-0.05711145025317614,-0.3890225776783628
106,4.280059499999879,bno085,0.203125,0.234375,9.91796875,-0.005859375,0.0,-0.001953125,0.0150146484375,-0.00347900390625,0.47796630859375,0.87823486328125,-0.02440051993933474,-0.05711145025317614,-0.3890225776783628
107,4.320057112000086,bno085,0.203125,0.234375,9.91796875,0.00390625,0.00390625,0.0,0.01507568359375,-0.00347900390625,0.47796630859375,0.87823486328125,-0.01825499942682955,-0.060453555834932886,-0.3889573130564887
108,4.360057631000018,bno085,0.203125,0.234375,9.95703125,0.001953125,0.001953125,0.0,0.01507568359375,-0.00341796875,0.47796630859375,0.87823486328125,-0.014912636051147652,-0.05431130836481191,-0.38908478063360713
109,4.400059463999696,bno085,0.203125,0.234375,9.91796875,0.00390625,0.001953125,0.0,0.01507568359375,-0.00341796875,0.47796630859375,0.87823486328125,-0.014912636051147652,-0.05431130836481191,-0.38908478063360713
110,4.440058094000051,bno085,0.203125,0.234375,9.91796875,0.00390625,0.001953125,0.0,0.01513671875,-0.00335693359375,0.47796630859375,0.87823486328125,-0.005424720854002771,-0.05151113396509471,-0.38914580334448556
111,4.480058427999666,bno085,0.203125,0.1953125,9.953125,-0.00390625,0.0,0.001953125,0.01513671875,-0.00335693359375,0.47796630859375,0.87823486328125,-0.005424720854002771,-0.05151113396509471,-0.38914580334448556
112,4.520058094999968,bno085,0.203125,0.234375,9.95703125,0.0,0.0,0.0,0.01513671875,-0.00335693359375,0.47796630859375,0.87823486328125,-0.005424720854002771,-0.05151113396509471,-0.38914580334448556
113,4.560058576999836,bno085,0.203125,0.234375,9.91796875,0.001953125,0.0,0.0,0.01513671875,-0.00335693359375,0.47796630859375,0.87823486328125,-0.005424720854002771,-0.05151113396509471,-0.38914580334448556
114,4.600058151999747,bno085,0.203125,0.234375,9.95703125,0.001953125,0.0,0.0,0.01519775390625,-0.00335693359375,0.47796630859375,0.87823486328125,0.0007208572601348794,-0.05485321438748172,-0.3890800754259133
115,4.640067299999828,bno085,0.203125,0.1953125,9.9140625,0.00390625,0.001953125,0.0,0.01519775390625,-0.00335693359375,0.47796630859375,0.87823486328125,0.0007208572601348794,-0.05485321438748172,-0.3890800754259133
116,4.680059522999727,bno085,0.203125,0.234375,9.91796875,0.00390625,0.001953125,0.0,0.01519775390625,-0.00335693359375,0.47796630859375,0.87823486328125,0.0007208572601348794,-0.05485321438748172,-0.3890800754259133
117,4.7200596709999445,bno085,0.203125,0.234375,9.95703125,0.001953125,0.0,-0.001953125,0.01519775390625,-0.00335693359375,0.47796630859375,0.87823486328125,0.0007208572601348794,-0.05485321438748172,-0.3890800754259133
118,4.760058153000045,bno085,0.203125,0.1953125,9.953125,0.001953125,0.0,0.001953125,0.01519775390625,-0.00335693359375,0.47796630859375,0.87823486328125,0.0007208572601348794,-0.05485321438748172,-0.3890800754259133
119,4.800057449999713,bno085,0.203125,0.234375,9.91796875,0.0,0.0,0.0,0.01519775390625,-0.00335693359375,0.47796630859375,0.87823486328125,0.0007208572601348794,-0.05485321438748172,-0.3890800754259133
120,4.840056672999708,bno085,0.203125,0.234375,9.91796875,0.0,0.0,0.0,0.01519775390625,-0.00335693359375,0.47796630859375,0.87823486328125,0.0007208572601348794,-0.05485321438748172,-0.3890800754259133
121,4.880059079999683,bno085,0.203125,0.234375,9.95703125,0.0,0.0,0.0,0.01513671875,-0.00335693359375,0.47796630859375,0.87823486328125,-0.005424720854002771,-0.05151113396509471,-0.38914580334448556
122,4.920059265999953,bno085,0.203125,0.234375,9.95703125,0.0,0.0,0.0,0.01513671875,-0.00335693359375,0.47796630859375,0.87823486328125,-0.005424720854002771,-0.05151113396509471,-0.38914580334448556
123,4.960058563000075,bno085,0.203125,0.234375,9.95703125,0.0,0.0,0.0,0.01513671875,-0.00335693359375,0.47796630859375,0.87823486328125,-0.005424720854002771,-0.05151113396509471,-0.38914580334448556
124,5.000058823000018,bno085,0.203125,0.234375,9.95703125,0.0,0.0,0.0,0.01513671875,-0.00341796875,0.47796630859375,0.87823486328125,-0.00876708680215346,-0.05765340136288802,-0.3890192843629982
125,5.040057322999928,bno085,0.203125,0.234375,9.95703125,0.0,0.0,0.0,0.01513671875,-0.00341796875,0.47796630859375,0.87823486328125,-0.00876708680215346,-0.05765340136288802,-0.3890192843629982
126,5.08005760099968,bno085,0.203125,0.1953125,9.953125,0.0,0.0,0.0,0.01507568359375,-0.00341796875,0.47796630859375,0.87823486328125,-0.014912636051147652,-0.05431130836481191,-0.38908478063360713
127,5.1200568979998025,bno085,0.203125,0.234375,9.95703125,0.0,0.0,0.0,0.01507568359375,-0.00341796875,0.47796630859375,0.87823486328125,-0.014912636051147652,-0.05431130836481191,-0.38908478063360713
128,5.1600582870000835,bno085,0.203125,0.234375,9.95703125,0.0,0.0,0.0,0.01507568359375,-0.00341796875,0.47796630859375,0.87823486328125,-0.014912636051147652,-0.05431130836481191,-0.38908478063360713
129,5.200056713999857,bno085,0.203125,0.234375,9.95703125,0.0,0.0,0.0,0.01507568359375,-0.00341796875,0.47796630859375,0.87823486328125,-0.014912636051147652,-0.05431130836481191,-0.38908478063360713
130,5.2400589359999685,bno085,0.203125,0.234375,9.95703125,0.0,0.0,0.0,0.01507568359375,-0.00341796875,0.47796630859375,0.87823486328125,-0.014912636051147652,-0.05431130836481191,-0.38908478063360713
131,5.280057862999911,bno085,0.203125,0.234375,9.91796875,0.0,0.0,0.0,0.01507568359375,-0.00341796875,0.47796630859375,0.87823486328125,-0.014912636051147652,-0.05431130836481191,-0.38908478063360713
132,5.320056658999874,bno085,0.203125,0.234375,9.95703125,0.0,0.0,0.0,0.01507568359375,-0.00341796875,0.47796630859375,0.87823486328125,-0.014912636051147652,-0.05431130836481191,-0.38908478063360713
133,5.360057159999997,bno085,0.203125,0.234375,9.95703125,0.0,0.0,0.0,0.01507568359375,-0.00341796875,0.47796630859375,0.87823486328125,-0.014912636051147652,-0.05431130836481191,-0.38908478063360713
134,5.400056420000055,bno085,0.203125,0.234375,9.91796875,0.0,0.0,0.0,0.01507568359375,-0.00341796875,0.47796630859375,0.87823486328125,-0.014912636051147652,-0.05431130836481191,-0.38908478063360713
135,5.4400571419996595,bno085,0.203125,0.234375,9.95703125,0.0,0.0,0.0,0.01507568359375,-0.00341796875,0.47796630859375,0.87823486328125,-0.014912636051147652,-0.05431130836481191,-0.38908478063360713
136,5.480056976000014,bno085,0.203125,0.234375,9.91796875,0.0,0.0,0.0,0.01507568359375,-0.00341796875,0.47796630859375,0.87823486328125,-0.014912636051147652,-0.05431130836481191,-0.38908478063360713
137,5.520057457999883,bno085,0.203125,0.234375,9.95703125,0.0,0.0,0.0,0.01507568359375,-0.00341796875,0.47796630859375,0.87823486328125,-0.014912636051147652,-0.05431130836481191,-0.38908478063360713
138,5.560057440000037,bno085,0.203125,0.234375,9.91796875,0.0,0.0,0.0,0.01507568359375,-0.00341796875,0.47796630859375,0.87823486328125,-0.014912636051147652,-0.05431130836481191,-0.38908478063360713
139,5.600058476999948,bno085,0.203125,0.234375,9.91796875,0.0,0.0,0.0,0.01507568359375,-0.00341796875,0.47796630859375,0.87823486328125,-0.014912636051147652,-0.05431130836481191,-0.38908478063360713
140,5.640045867000026,bno085,0.203125,0.234375,9.91796875,0.0,0.0,0.0,0.01513671875,-0.00335693359375,0.480224609375,0.87701416015625,-0.002658815070758066,-0.04803277212287333,-0.09399118792879986
141,5.680059885999981,bno085,0.203125,0.234375,9.95703125,0.0,0.0,0.0,0.01513671875,-0.00335693359375,0.4805908203125,0.8768310546875,-0.002188275403822526,-0.047451359576276005,-0.04562864583960552
142,5.720058144999712,bno085,0.203125,0.234375,9.95703125,0.0,0.0,0.0,0.01513671875,-0.00335693359375,0.4805908203125,0.8768310546875,-0.002188275403822526,-0.047451359576276005,-0.04562864583960552
143,5.760057478999897,bno085,0.203125,0.234375,9.95703125,0.0,0.0,0.0,0.01519775390625,-0.00335693359375,0.4805908203125,0.8768310546875,0.003947488506703746,-0.050811787307162966,-0.04556276400255111
144,5.800057202000062,bno085,0.203125,0.234375,9.91796875,0.0,0.0,0.0,0.01519775390625,-0.00335693359375,0.4805908203125,0.8768310546875,0.003947488506703746,-0.050811787307162966,-0.04556276400255111
145,5.840057090999835,bno085,0.203125,0.234375,9.95703125,0.0,0.0,0.0,0.01519775390625,-0.0032958984375,0.48175048828125,0.87615966796875,0.008695956738461104,-0.04296391327626377,0.10486094883389938
146,5.880056757999682,bno085,0.203125,0.1953125,9.953125,0.0,0.0,0.0,0.01519775390625,-0.0032958984375,0.48199462890625,0.87603759765625,0.009013285596816845,-0.04257938266761351,0.13714712378938484
147,5.920058554999741,bno085,0.203125,0.234375,9.95703125,0.0,0.0,0.0,0.01519775390625,-0.0032958984375,0.48199462890625,0.87603759765625,0.009013285596816845,-0.04257938266761351,0.13714712378938484
148,5.960058314999969,bno085,0.203125,0.234375,9.91796875,0.0,0.0,0.0,0.01519775390625,-0.0032958984375,0.48199462890625,0.87603759765625,0.009013285596816845,-0.04257938266761351,0.13714712378938484
149,6.000057315000049,bno085,0.203125,0.234375,9.95703125,0.0,0.0,0.0,0.01519775390625,-0.0032958984375,0.48199462890625,0.87603759765625,0.009013285596816845,-0.04257938266761351,0.13714712378938484
150,6.0400580929999705,bno085,0.203125,0.1953125,9.953125,0.0,0.0,0.0,0.01519775390625,-0.0032958984375,0.48199462890625,0.87603759765625,0.009013285596816845,-0.04257938266761351,0.13714712378938484
151,6.080058519999966,bno085,0.203125,0.234375,9.95703125,0.0,0.0,0.0,0.01519775390625,-0.0032958984375,0.48199462890625,0.87603759765625,0.009013285596816845,-0.04257938266761351,0.13714712378938484
152,6.120057964999887,bno085,0.203125,0.234375,9.95703125,0.0,0.0,0.0,0.01519775390625,-0.0032958984375,0.48199462890625,0.87603759765625,0.009013285596816845,-0.04257938266761351,0.13714712378938484
153,6.160059483999703,bno085,0.203125,0.234375,9.95703125,0.0,0.0,0.0,0.01519775390625,-0.0032958984375,0.48199462890625,0.87603759765625,0.009013285596816845,-0.04257938266761351,0.13714712378938484
154,6.200057372999709,bno085,0.203125,0.234375,9.95703125,0.0,0.0,0.0,0.01519775390625,-0.0032958984375,0.48199462890625,0.87603759765625,0.009013285596816845,-0.04257938266761351,0.13714712378938484
155,6.240056502999778,bno085,0.203125,0.234375,9.95703125,0.0,0.0,0.0,0.01513671875,-0.0032958984375,0.48199462890625,0.87603759765625,0.0028830650805237333,-0.03920915382939053,0.13708093112960432
156,6.280056540999794,bno085,0.203125,0.234375,9.91796875,0.0,0.0,0.0,0.01513671875,-0.00335693359375,0.48199462890625,0.87603759765625,-0.00048746083446298693,-0.04533606710416785,0.1372063192533457
157,6.320056836999811,bno085,0.203125,0.234375,9.95703125,0.0,0.0,0.0,0.01513671875,-0.00335693359375,0.48199462890625,0.87603759765625,-0.00048746083446298693,-0.04533606710416785,0.1372063192533457
158,6.360057077999954,bno085,0.203125,0.234375,9.95703125,0.0,0.0,0.0,0.01513671875,-0.00335693359375,0.48199462890625,0.87603759765625,-0.00048746083446298693,-0.04533606710416785,0.1372063192533457
159,6.40005726399977,bno085,0.203125,0.1953125,9.953125,0.0,0.0,0.0,0.01513671875,-0.00335693359375,0.48199462890625,0.87603759765625,-0.00048746083446298693,-0.04533606710416785,0.1372063192533457
160,6.440059189999829,bno085,0.203125,0.234375,9.91796875,0.0,0.0,0.0,0.01513671875,-0.0032958984375,0.48199462890625,0.87603759765625,0.0028830650805237333,-0.03920915382939053,0.13708093112960432
161,6.480058486999951,bno085,0.203125,0.234375,9.95703125,0.0,0.0,0.0,0.01513671875,-0.00335693359375,0.48199462890625,0.87603759765625,-0.00048746083446298693,-0.04533606710416785,0.1372063192533457
162,6.520057765999809,bno085,0.203125,0.234375,9.91796875,0.0,0.0,0.0,0.01513671875,-0.00335693359375,0.48199462890625,0.87603759765625,-0.00048746083446298693,-0.04533606710416785,0.1372063192533457
163,6.560058024999762,bno085,0.203125,0.234375,9.91796875,0.0,0.0,0.0,0.01513671875,-0.00335693359375,0.48199462890625,0.87603759765625,-0.00048746083446298693,-0.04533606710416785,0.1372063192533457
164,6.6000576550000005,bno085,0.203125,0.234375,9.95703125,0.0,0.0,0.0,0.01513671875,-0.00335693359375,0.48199462890625,0.87603759765625,-0.00048746083446298693,-0.04533606710416785,0.1372063192533457
165,6.640060581999933,bno085,0.203125,0.234375,9.91796875,0.0,0.0,0.0,0.01513671875,-0.00335693359375,0.48199462890625,0.87603759765625,-0.00048746083446298693,-0.04533606710416785,0.1372063192533457
166,6.680059470999822,bno085,0.203125,0.1953125,9.9140625,0.0,0.0,0.0,0.01513671875,-0.00335693359375,0.48199462890625,0.87603759765625,-0.00048746083446298693,-0.04533606710416785,0.1372063192533457
167,6.720057489999817,bno085,0.203125,0.234375,9.91796875,0.0,0.0,0.0,0.01513671875,-0.00335693359375,0.48199462890625,0.87603759765625,-0.00048746083446298693,-0.04533606710416785,0.1372063192533457
168,6.760057639000024,bno085,0.203125,0.234375,9.91796875,0.0,0.0,0.0,0.01507568359375,-0.00335693359375,0.48199462890625,0.87603759765625,-0.006617652409344045,-0.04196582572622917,0.13714035493896642
169,6.8000570839999455,bno085,0.203125,0.234375,9.95703125,0.0,0.0,0.0,0.01507568359375,-0.00335693359375,0.48199462890625,0.87603759765625,-0.006617652409344045,-0.04196582572622917,0.13714035493896642
170,6.840056861999983,bno085,0.203125,0.1953125,9.9140625,0.0,0.0,0.0,0.01507568359375,-0.00335693359375,0.48199462890625,0.87603759765625,-0.006617652409344045,-0.04196582572622917,0.13714035493896642
171,6.880056843999682,bno085,0.203125,0.234375,9.95703125,0.0,0.0,0.0,0.01507568359375,-0.00335693359375,0.48199462890625,0.87603759765625,-0.006617652409344045,-0.04196582572622917,0.13714035493896642
172,6.9200562699998045,bno085,0.203125,0.234375,9.95703125,0.0,0.0,0.0,0.01507568359375,-0.00335693359375,0.48199462890625,0.87603759765625,-0.006617652409344045,-0.04196582572622917,0.13714035493896642
173,6.960057159999906,bno085,0.203125,0.234375,9.91796875,0.0,0.0,0.0,0.01507568359375,-0.00335693359375,0.48199462890625,0.87603759765625,-0.006617652409344045,-0.04196582572622917,0.13714035493896642
174,7.000056678999954,bno085,0.203125,0.1953125,9.953125,0.0,0.0,0.0,0.01507568359375,-0.00335693359375,0.48199462890625,0.87603759765625,-0.006617652409344045,-0.04196582572622917,0.13714035493896642
175,7.040056937999907,bno085,0.203125,0.234375,9.95703125,0.0,0.0,0.0,0.01507568359375,-0.00335693359375,0.48199462890625,0.87603759765625,-0.006617652409344045,-0.04196582572622917,0.13714035493896642
176,7.080058586999712,bno085,0.203125,0.234375,9.95703125,0.0,0.0,0.0,0.01507568359375,-0.00335693359375,0.48199462890625,0.87603759765625,-0.006617652409344045,-0.04196582572622917,0.13714035493896642
177,7.120057661999908,bno085,0.203125,0.234375,9.91796875,0.0,0.0,0.0,0.0150146484375,-0.00341796875,0.48199462890625,0.87603759765625,-0.016118338135111973,-0.04472246507973575,0.1372009566102977
178,7.1600595689997135,bno085,0.203125,0.234375,9.91796875,0.0,0.0,0.0,0.0150146484375,-0.00341796875,0.48199462890625,0.87603759765625,-0.016118338135111973,-0.04472246507973575,0.1372009566102977
179,7.20005827399973,bno085,0.203125,0.234375,9.91796875,0.0,0.0,0.0,0.0150146484375,-0.00341796875,0.48199462890625,0.87603759765625,-0.016118338135111973,-0.04472246507973575,0.1372009566102977
180,7.240056755999831,bno085,0.203125,0.234375,9.91796875,0.0,0.0,0.0,0.0150146484375,-0.00341796875,0.48199462890625,0.87603759765625,-0.016118338135111973,-0.04472246507973575,0.1372009566102977
181,7.280057125999974,bno085,0.203125,0.234375,9.95703125,0.0,0.0,0.0,0.0150146484375,-0.00341796875,0.48199462890625,0.87603759765625,-0.016118338135111973,-0.04472246507973575,0.1372009566102977
182,7.320056775000012,bno085,0.203125,0.234375,9.95703125,0.0,0.0,0.0,0.0150146484375,-0.00341796875,0.48199462890625,0.87603759765625,-0.016118338135111973,-0.04472246507973575,0.1372009566102977
183,7.360057072000018,bno085,0.203125,0.234375,9.95703125,0.0,0.0,0.0,0.0150146484375,-0.00341796875,0.48199462890625,0.87603759765625,-0.016118338135111973,-0.04472246507973575,0.1372009566102977
184,7.400056831999791,bno085,0.203125,0.234375,9.95703125,0.0,0.0,0.0,0.0150146484375,-0.00341796875,0.48199462890625,0.87603759765625,-0.016118338135111973,-0.04472246507973575,0.1372009566102977
185,7.4400569989998075,bno085,0.203125,0.234375,9.95703125,0.0,0.0,0.0,0.0150146484375,-0.00341796875,0.48199462890625,0.87603759765625,-0.016118338135111973,-0.04472246507973575,0.1372009566102977
186,7.480057554999803,bno085,0.203125,0.234375,9.95703125,0.0,0.0,0.0,0.0150146484375,-0.00341796875,0.48199462890625,0.87603759765625,-0.016118338135111973,-0.04472246507973575,0.1372009566102977
187,7.520056184999703,bno085,0.203125,0.234375,9.95703125,0.0,0.0,0.0,0.0150146484375,-0.00341796875,0.48199462890625,0.87603759765625,-0.016118338135111973,-0.04472246507973575,0.1372009566102977
188,7.560057073999815,bno085,0.203125,0.1953125,9.953125,0.0,0.0,0.0,0.0150146484375,-0.00341796875,0.48199462890625,0.87603759765625,-0.016118338135111973,-0.04472246507973575,0.1372009566102977
189,7.600057555999683,bno085,0.203125,0.1953125,9.9140625,0.0,0.0,0.0,0.0150146484375,-0.00341796875,0.48199462890625,0.87603759765625,-0.016118338135111973,-0.04472246507973575,0.1372009566102977
190,7.640059574999668,bno085,0.203125,0.234375,9.95703125,0.0,0.0,0.0,0.0150146484375,-0.00341796875,0.48199462890625,0.87603759765625,-0.016118338135111973,-0.04472246507973575,0.1372009566102977
191,7.6800563169999805,bno085,0.203125,0.1953125,9.953125,0.0,0.0,0.0,0.0150146484375,-0.00341796875,0.48199462890625,0.87603759765625,-0.016118338135111973,-0.04472246507973575,0.1372009566102977
192,7.720056927999849,bno085,0.203125,0.234375,9.91796875,0.0,0.0,0.0,0.0150146484375,-0.00341796875,0.48199462890625,0.87603759765625,-0.016118338135111973,-0.04472246507973575,0.1372009566102977
193,7.760057503000098,bno085,0.203125,0.234375,9.95703125,0.0,0.0,0.0,0.0150146484375,-0.00341796875,0.48199462890625,0.87603759765625,-0.016118338135111973,-0.04472246507973575,0.1372009566102977
194,7.800056799999766,bno085,0.203125,0.234375,9.91796875,0.0,0.0,0.0,0.0150146484375,-0.00341796875,0.48199462890625,0.87603759765625,-0.016118338135111973,-0.04472246507973575,0.1372009566102977
195,7.840057262999835,bno085,0.203125,0.1953125,9.9140625,0.0,0.0,0.0,0.0150146484375,-0.00341796875,0.48199462890625,0.87603759765625,-0.016118338135111973,-0.04472246507973575,0.1372009566102977
196,7.88005674499982,bno085,0.203125,0.234375,9.91796875,0.0,0.0,0.0,0.0150146484375,-0.00341796875,0.48199462890625,0.87603759765625,-0.016118338135111973,-0.04472246507973575,0.1372009566102977
197,7.920057244999953,bno085,0.203125,0.234375,9.95703125,0.0,0.0,0.0,0.0150146484375,-0.00341796875,0.48199462890625,0.87603759765625,-0.016118338135111973,-0.04472246507973575,0.1372009566102977
198,7.960056986999916,bno085,0.203125,0.234375,9.95703125,0.0,0.0,0.0,0.0150146484375,-0.00341796875,0.48199462890625,0.87603759765625,-0.016118338135111973,-0.04472246507973575,0.1372009566102977
199,8.00005648699971,bno085,0.203125,0.234375,9.95703125,0.0,0.0,0.0,0.0150146484375,-0.00341796875,0.48199462890625,0.87603759765625,-0.016118338135111973,-0.04472246507973575,0.1372009566102977
200,8.040056913999706,bno085,0.203125,0.234375,9.95703125,0.0,0.0,0.0,0.01495361328125,-0.00341796875,0.48199462890625,0.87603759765625,-0.022248475745360284,-0.04135221130291566,0.13713522053620575
201,8.080056969999987,bno085,0.203125,0.234375,9.95703125,0.0,0.0,0.0,0.01495361328125,-0.00341796875,0.48199462890625,0.87603759765625,-0.022248475745360284,-0.04135221130291566,0.13713522053620575
202,8.120056655000099,bno085,0.203125,0.234375,9.95703125,0.0,0.0,0.0,0.01495361328125,-0.00341796875,0.48199462890625,0.87603759765625,-0.022248475745360284,-0.04135221130291566,0.13713522053620575
203,8.160056248999808,bno085,0.203125,0.234375,9.95703125,0.0,0.0,0.0,0.01495361328125,-0.00341796875,0.48199462890625,0.87603759765625,-0.022248475745360284,-0.04135221130291566,0.13713522053620575
204,8.200057526999899,bno085,0.203125,0.234375,9.91796875,0.0,0.0,0.0,0.01495361328125,-0.00341796875,0.48199462890625,0.87603759765625,-0.022248475745360284,-0.04135221130291566,0.13713522053620575
205,8.240056861000085,bno085,0.203125,0.234375,9.95703125,0.0,0.0,0.0,0.01495361328125,-0.00341796875,0.48199462890625,0.87603759765625,-0.022248475745360284,-0.04135221130291566,0.13713522053620575
206,8.280056694999985,bno085,0.203125,0.234375,9.95703125,0.0,0.0,0.0,0.01495361328125,-0.00341796875,0.48199462890625,0.87603759765625,-0.022248475745360284,-0.04135221130291566,0.13713522053620575
207,8.320057194999663,bno085,0.203125,0.234375,9.91796875,0.0,0.0,0.0,0.01495361328125,-0.00341796875,0.48199462890625,0.87603759765625,-0.022248475745360284,-0.04135221130291566,0.13713522053620575
208,8.360056695999901,bno085,0.203125,0.234375,9.95703125,0.0,0.0,0.0,0.01495361328125,-0.00341796875,0.48199462890625,0.87603759765625,-0.022248475745360284,-0.04135221130291566,0.13713522053620575
209,8.400056528999812,bno085,0.203125,0.234375,9.95703125,0.0,0.0,0.0,0.01495361328125,-0.00341796875,0.48199462890625,0.87603759765625,-0.022248475745360284,-0.04135221130291566,0.13713522053620575
210,8.440056270999776,bno085,0.203125,0.234375,9.95703125,0.0,0.0,0.0,0.0150146484375,-0.00341796875,0.48199462890625,0.87603759765625,-0.016118338135111973,-0.04472246507973575,0.1372009566102977
211,8.480058585999814,bno085,0.203125,0.234375,9.95703125,0.0,0.0,0.0,0.0150146484375,-0.00341796875,0.48199462890625,0.87603759765625,-0.016118338135111973,-0.04472246507973575,0.1372009566102977
212,8.520057493999957,bno085,0.203125,0.234375,9.95703125,0.0,0.0,0.0,0.0150146484375,-0.00341796875,0.48199462890625,0.87603759765625,-0.016118338135111973,-0.04472246507973575,0.1372009566102977
213,8.56005699499974,bno085,0.203125,0.1953125,9.953125,0.0,0.0,0.0,0.0150146484375,-0.00341796875,0.48199462890625,0.87603759765625,-0.016118338135111973,-0.04472246507973575,0.1372009566102977
214,8.600054957999873,bno085,0.203125,0.234375,9.91796875,0.0,0.0,0.0,0.0150146484375,-0.00341796875,0.48199462890625,0.87603759765625,-0.016118338135111973,-0.04472246507973575,0.1372009566102977
215,8.640061272999901,bno085,0.203125,0.234375,9.95703125,0.0,0.0,0.0,0.0150146484375,-0.00341796875,0.48199462890625,0.87603759765625,-0.016118338135111973,-0.04472246507973575,0.1372009566102977
216,8.680059162999896,bno085,0.203125,0.234375,9.95703125,0.0,0.0,0.0,0.0150146484375,-0.00341796875,0.48199462890625,0.87603759765625,-0.016118338135111973,-0.04472246507973575,0.1372009566102977
217,8.720058829999743,bno085,0.203125,0.234375,9.91796875,0.0,0.0,0.0,0.0150146484375,-0.00341796875,0.48199462890625,0.87603759765625,-0.016118338135111973,-0.04472246507973575,0.1372009566102977
218,8.760057423000035,bno085,0.203125,0.234375,9.91796875,0.0,0.0,0.0,0.0150146484375,-0.00341796875,0.48199462890625,0.87603759765625,-0.016118338135111973,-0.04472246507973575,0.1372009566102977
219,8.800057793999713,bno085,0.203125,0.234375,9.95703125,0.0,0.0,0.0,0.0150146484375,-0.00341796875,0.48199462890625,0.87603759765625,-0.016118338135111973,-0.04472246507973575,0.1372009566102977
220,8.840058349999708,bno085,0.203125,0.234375,9.91796875,0.0,0.0,0.0,0.0150146484375,-0.00341796875,0.48199462890625,0.87603759765625,-0.016118338135111973,-0.04472246507973575,0.1372009566102977
221,8.88005777599983,bno085,0.203125,0.234375,9.91796875,0.0,0.0,0.0,0.0150146484375,-0.00341796875,0.48199462890625,0.87603759765625,-0.016118338135111973,-0.04472246507973575,0.1372009566102977
222,8.92005748099973,bno085,0.203125,0.234375,9.95703125,0.0,0.0,0.0,0.0150146484375,-0.00341796875,0.48199462890625,0.87603759765625,-0.016118338135111973,-0.04472246507973575,0.1372009566102977
223,8.960057258999768,bno085,0.203125,0.234375,9.91796875,0.0,0.0,0.0,0.0150146484375,-0.00341796875,0.48199462890625,0.87603759765625,-0.016118338135111973,-0.04472246507973575,0.1372009566102977
224,9.000059573999806,bno085,0.203125,0.1953125,9.953125,0.0,0.0,0.0,0.0150146484375,-0.00341796875,0.48199462890625,0.87603759765625,-0.016118338135111973,-0.04472246507973575,0.1372009566102977
225,9.040061296999738,bno085,0.203125,0.234375,9.95703125,0.0,0.0,0.0,0.0150146484375,-0.00341796875,0.48199462890625,0.87603759765625,-0.016118338135111973,-0.04472246507973575,0.1372009566102977
226,9.080058482999902,bno085,0.203125,0.234375,9.95703125,0.0,0.0,0.0,0.0150146484375,-0.00341796875,0.48199462890625,0.87603759765625,-0.016118338135111973,-0.04472246507973575,0.1372009566102977
227,9.12006518699991,bno085,0.203125,0.234375,9.91796875,0.0,0.0,0.0,0.0150146484375,-0.00341796875,0.48199462890625,0.87603759765625,-0.016118338135111973,-0.04472246507973575,0.1372009566102977
228,9.16005676199984,bno085,0.203125,0.234375,9.95703125,0.0,0.0,0.0,0.0150146484375,-0.00341796875,0.48199462890625,0.87603759765625,-0.016118338135111973,-0.04472246507973575,0.1372009566102977
229,9.2000573360001,bno085,0.203125,0.234375,9.95703125,0.0,0.0,0.0,0.0150146484375,-0.00341796875,0.48199462890625,0.87603759765625,-0.016118338135111973,-0.04472246507973575,0.1372009566102977
230,9.240057484999852,bno085,0.203125,0.234375,9.91796875,0.0,0.0,0.0,0.01495361328125,-0.00341796875,0.48199462890625,0.87603759765625,-0.022248475745360284,-0.04135221130291566,0.13713522053620575
231,9.280056799999784,bno085,0.203125,0.234375,9.95703125,0.0,0.0,0.0,0.01495361328125,-0.00341796875,0.48199462890625,0.87603759765625,-0.022248475745360284,-0.04135221130291566,0.13713522053620575
232,9.320056856000065,bno085,0.203125,0.234375,9.95703125,0.0,0.0,0.0,0.0150146484375,-0.00341796875,0.48199462890625,0.87603759765625,-0.016118338135111973,-0.04472246507973575,0.1372009566102977
233,9.360056598000028,bno085,0.203125,0.234375,9.95703125,0.0,0.0,0.0,0.0150146484375,-0.00341796875,0.48199462890625,0.87603759765625,-0.016118338135111973,-0.04472246507973575,0.1372009566102977
234,9.400056597999992,bno085,0.203125,0.234375,9.95703125,0.0,0.0,0.0,0.0150146484375,-0.00341796875,0.48199462890625,0.87603759765625,-0.016118338135111973,-0.04472246507973575,0.1372009566102977
235,9.440058505999787,bno085,0.203125,0.1953125,9.953125,0.0,0.0,0.0,0.0150146484375,-0.00341796875,0.48199462890625,0.87603759765625,-0.016118338135111973,-0.04472246507973575,0.1372009566102977
236,9.480059413999697,bno085,0.203125,0.1953125,9.9140625,0.0,0.0,0.0,0.0150146484375,-0.00341796875,0.48199462890625,0.87603759765625,-0.016118338135111973,-0.04472246507973575,0.1372009566102977
237,9.520058747999883,bno085,0.203125,0.234375,9.95703125,0.0,0.0,0.0,0.0150146484375,-0.00335693359375,0.48199462890625,0.87603759765625,-0.012747818725888474,-0.03859558448731357,0.13707439051744763
238,9.560058099999878,bno085,0.203125,0.1953125,9.953125,0.0,0.0,0.0,0.0150146484375,-0.00341796875,0.48199462890625,0.87603759765625,-0.016118338135111973,-0.04472246507973575,0.1372009566102977
239,9.600058063999768,bno085,0.203125,0.234375,9.95703125,0.0,0.0,0.0,0.0150146484375,-0.00341796875,0.48199462890625,0.87603759765625,-0.016118338135111973,-0.04472246507973575,0.1372009566102977
240,9.640062379000028,bno085,0.203125,0.234375,9.95703125,0.0,0.0,0.0,0.0150146484375,-0.00341796875,0.48199462890625,0.87603759765625,-0.016118338135111973,-0.04472246507973575,0.1372009566102977
241,9.680058676000044,bno085,0.203125,0.234375,9.95703125,0.0,0.0,0.0,0.0150146484375,-0.00341796875,0.48199462890625,0.87603759765625,-0.016118338135111973,-0.04472246507973575,0.1372009566102977
242,9.720057491999796,bno085,0.203125,0.234375,9.95703125,0.0,0.0,0.0,0.0150146484375,-0.00341796875,0.48199462890625,0.87603759765625,-0.016118338135111973,-0.04472246507973575,0.1372009566102977
243,9.760057584999686,bno085,0.203125,0.234375,9.95703125,0.0,0.0,0.0,0.0150146484375,-0.00341796875,0.48199462890625,0.87603759765625,-0.016118338135111973,-0.04472246507973575,0.1372009566102977
244,9.800059696000062,bno085,0.203125,0.234375,9.95703125,0.0,0.0,0.0,0.0150146484375,-0.00341796875,0.48199462890625,0.87603759765625,-0.016118338135111973,-0.04472246507973575,0.1372009566102977
245,9.84005740099974,bno085,0.203125,0.234375,9.95703125,0.0,0.0,0.0,0.0150146484375,-0.00341796875,0.48199462890625,0.87603759765625,-0.016118338135111973,-0.04472246507973575,0.1372009566102977
246,9.880057678999947,bno085,0.203125,0.234375,9.91796875,0.0,0.0,0.0,0.0150146484375,-0.00341796875,0.48199462890625,0.87603759765625,-0.016118338135111973,-0.04472246507973575,0.1372009566102977
247,9.92005730899973,bno085,0.203125,0.234375,9.91796875,0.0,0.0,0.0,0.0150146484375,-0.00341796875,0.48199462890625,0.87603759765625,-0.016118338135111973,-0.04472246507973575,0.1372009566102977
248,9.96005801299998,bno085,0.203125,0.234375,9.91796875,0.0,0.0,0.0,0.01495361328125,-0.00341796875,0.48199462890625,0.87603759765625,-0.022248475745360284,-0.04135221130291566,0.13713522053620575
249,10.000058698999965,bno085,0.203125,0.234375,9.95703125,0.0,0.0,0.0,0.01495361328125,-0.00341796875,0.48199462890625,0.87603759765625,-0.022248475745360284,-0.04135221130291566,0.13713522053620575
250,10.040059718000066,bno085,0.203125,0.234375,9.95703125,0.0,0.0,0.0,0.01495361328125,-0.00341796875,0.48199462890625,0.87603759765625,-0.022248475745360284,-0.04135221130291566,0.13713522053620575
251,10.08005871899968,bno085,0.203125,0.1953125,9.953125,0.0,0.0,0.0,0.01495361328125,-0.00341796875,0.48199462890625,0.87603759765625,-0.022248475745360284,-0.04135221130291566,0.13713522053620575
252,10.120059867999771,bno085,0.203125,0.1953125,9.9140625,0.0,0.0,0.0,0.01495361328125,-0.00341796875,0.48199462890625,0.87603759765625,-0.022248475745360284,-0.04135221130291566,0.13713522053620575
253,10.160059849999925,bno085,0.203125,0.234375,9.91796875,0.0,0.0,0.0,0.01495361328125,-0.00341796875,0.48199462890625,0.87603759765625,-0.022248475745360284,-0.04135221130291566,0.13713522053620575
254,10.200057349999952,bno085,0.203125,0.234375,9.95703125,0.0,0.0,0.0,0.01495361328125,-0.00341796875,0.48199462890625,0.87603759765625,-0.022248475745360284,-0.04135221130291566,0.13713522053620575
255,10.240062516999842,bno085,0.203125,0.1953125,9.953125,0.0,0.0,0.0,0.01495361328125,-0.00341796875,0.48199462890625,0.87603759765625,-0.022248475745360284,-0.04135221130291566,0.13713522053620575
256,10.28005936999989,bno085,0.203125,0.234375,9.91796875,0.0,0.0,0.0,0.01495361328125,-0.00341796875,0.48199462890625,0.87603759765625,-0.022248475745360284,-0.04135221130291566,0.13713522053620575
257,10.320058777999748,bno085,0.203125,0.234375,9.91796875,0.0,0.0,0.0,0.014892578125,-0.00347900390625,0.48199462890625,0.87603759765625,-0.03174910145582717,-0.044108805573590315,0.13719722841935725
258,10.360058926999955,bno085,0.203125,0.1953125,9.9140625,0.0,0.0,0.0,0.014892578125,-0.00347900390625,0.48199462890625,0.87603759765625,-0.03174910145582717,-0.044108805573590315,0.13719722841935725
259,10.400056926999696,bno085,0.203125,0.234375,9.91796875,0.0,0.0,0.0,0.014892578125,-0.00347900390625,0.48199462890625,0.87603759765625,-0.03174910145582717,-0.044108805573590315,0.13719722841935725
260,10.440057297999829,bno085,0.203125,0.234375,9.95703125,0.0,0.0,0.0,0.014892578125,-0.00347900390625,0.48199462890625,0.87603759765625,-0.03174910145582717,-0.044108805573590315,0.13719722841935725
261,10.48005674299975,bno085,0.203125,0.1953125,9.953125,0.0,0.0,0.0,0.01483154296875,-0.00347900390625,0.48199462890625,0.87603759765625,-0.037879185576748936,-0.04073853939779391,0.13713172058873924
262,10.520057595999788,bno085,0.203125,0.234375,9.95703125,0.0,0.0,0.0,0.01483154296875,-0.00347900390625,0.48199462890625,0.87603759765625,-0.037879185576748936,-0.04073853939779391,0.13713172058873924
263,10.56005785499974,bno085,0.203125,0.234375,9.91796875,0.0,0.0,0.0,0.01483154296875,-0.00347900390625,0.48199462890625,0.87603759765625,-0.037879185576748936,-0.04073853939779391,0.13713172058873924
264,10.600058726000043,bno085,0.203125,0.234375,9.95703125,0.0,0.0,0.0,0.01483154296875,-0.00347900390625,0.48199462890625,0.87603759765625,-0.037879185576748936,-0.04073853939779391,0.13713172058873924
265,10.64006176399971,bno085,0.203125,0.234375,9.95703125,0.0,0.0,0.0,0.01483154296875,-0.00347900390625,0.48199462890625,0.87603759765625,-0.037879185576748936,-0.04073853939779391,0.13713172058873924
266,10.68005820899998,bno085,0.203125,0.234375,9.91796875,0.0,0.0,0.0,0.01483154296875,-0.0035400390625,0.48199462890625,0.87603759765625,-0.041249696183874654,-0.04686536730555695,0.1372604141684717
267,10.720057134999934,bno085,0.203125,0.234375,9.95703125,0.0,0.0,0.0,0.01483154296875,-0.0035400390625,0.48199462890625,0.87603759765625,-0.041249696183874654,-0.04686536730555695,0.1372604141684717
268,10.760058616999686,bno085,0.203125,0.234375,9.95703125,0.0,0.0,0.0,0.01483154296875,-0.0035400390625,0.48199462890625,0.87603759765625,-0.041249696183874654,-0.04686536730555695,0.1372604141684717
269,10.800057302999903,bno085,0.203125,0.234375,9.91796875,0.0,0.0,0.0,0.01483154296875,-0.0035400390625,0.48199462890625,0.87603759765625,-0.041249696183874654,-0.04686536730555695,0.1372604141684717
270,10.84005735899973,bno085,0.203125,0.234375,9.95703125,0.0,0.0,0.0,0.01483154296875,-0.00347900390625,0.48199462890625,0.87603759765625,-0.037879185576748936,-0.04073853939779391,0.13713172058873924
271,10.880057545,bno085,0.203125,0.234375,9.95703125,0.0,0.0,0.0,0.01483154296875,-0.00347900390625,0.48199462890625,0.87603759765625,-0.037879185576748936,-0.04073853939779391,0.13713172058873924
272,10.92006015700008,bno085,0.203125,0.1953125,9.953125,0.0,0.0,0.0,0.01483154296875,-0.00347900390625,0.48199462890625,0.87603759765625,-0.037879185576748936,-0.04073853939779391,0.13713172058873924
273,10.960057175999737,bno085,0.203125,0.1953125,9.9140625,0.0,0.0,0.0,0.01483154296875,-0.00347900390625,0.48199462890625,0.87603759765625,-0.037879185576748936,-0.04073853939779391,0.13713172058873924
274,11.000059490999774,bno085,0.203125,0.234375,9.95703125,0.0,0.0,0.0,0.01483154296875,-0.00347900390625,0.48199462890625,0.87603759765625,-0.037879185576748936,-0.04073853939779391,0.13713172058873924
275,11.040058917999886,bno085,0.203125,0.234375,9.91796875,0.0,0.0,0.0,0.01483154296875,-0.00347900390625,0.48199462890625,0.87603759765625,-0.037879185576748936,-0.04073853939779391,0.13713172058873924
276,11.08005865899986,bno085,0.203125,0.234375,9.95703125,0.0,0.0,0.0,0.01483154296875,-0.00347900390625,0.48199462890625,0.87603759765625,-0.037879185576748936,-0.04073853939779391,0.13713172058873924
277,11.120059456000035,bno085,0.203125,0.234375,9.95703125,0.001953125,-0.001953125,-0.001953125,0.014892578125,-0.0035400390625,0.48193359375,0.87603759765625,-0.03523500242803142,-0.050371418027345266,0.12835149985369174
278,11.160057882999808,bno085,0.203125,0.1953125,9.9140625,-0.001953125,-0.001953125,0.001953125,0.014892578125,-0.0035400390625,0.48199462890625,0.87603759765625,-0.03511961560065928,-0.050235646181617494,0.13732569354534493
279,11.200057030999687,bno085,0.203125,0.234375,9.91796875,0.0,0.001953125,0.0,0.014892578125,-0.0035400390625,0.48199462890625,0.87603759765625,-0.03511961560065928,-0.050235646181617494,0.13732569354534493
280,11.240056401999936,bno085,0.203125,0.1953125,9.953125,0.0,0.001953125,0.0,0.014892578125,-0.00347900390625,0.48193359375,0.87603759765625,-0.0318649148601034,-0.044244577255536426,0.12822303022034107
281,11.280057698999826,bno085,0.203125,0.1953125,9.953125,0.0,0.001953125,0.0,0.01495361328125,-0.00341796875,0.48193359375,0.87603759765625,-0.022364715564288453,-0.04148755623232931,0.12816101686065287
282,11.320058699999663,bno085,0.203125,0.234375,9.95703125,-0.0078125,0.0,-0.001953125,0.0150146484375,-0.00341796875,0.482421875,0.87579345703125,-0.015600460792658812,-0.04407490241923548,0.19281773604799027
283,11.360057255999891,bno085,0.203125,0.234375,9.95703125,0.001953125,0.0,0.0,0.01507568359375,-0.00335693359375,0.482421875,0.87579345703125,-0.006098495057913427,-0.04132295664579869,0.19275720445546982
284,11.400058831000024,bno085,0.203125,0.234375,9.95703125,0.0,0.0,0.001953125,0.01507568359375,-0.00335693359375,0.482421875,0.87579345703125,-0.006098495057913427,-0.04132295664579869,0.19275720445546982
285,11.440056793999702,bno085,0.203125,0.234375,9.91796875,-0.00390625,0.001953125,-0.001953125,0.0150146484375,-0.00335693359375,0.482421875,0.87579345703125,-0.012226954633688824,-0.037949728588514246,0.19269121520426927
286,11.4800582580001,bno085,0.203125,0.234375,9.95703125,-0.00390625,0.001953125,-0.001953125,0.0150146484375,-0.00335693359375,0.482421875,0.87579345703125,-0.012226954633688824,-0.037949728588514246,0.19269121520426927
287,11.520058202999735,bno085,0.203125,0.234375,9.95703125,-0.005859375,-0.001953125,0.0,0.0150146484375,-0.00341796875,0.482421875,0.87579345703125,-0.015600460792658812,-0.04407490241923548,0.19281773604799027
288,11.560058980999656,bno085,0.203125,0.234375,9.95703125,-0.001953125,0.0,0.001953125,0.01495361328125,-0.00341796875,0.48236083984375,0.87579345703125,-0.021845320940825325,-0.04083701169165281,0.18377509134226322
289,11.600057073999778,bno085,0.203125,0.234375,9.91796875,-0.00390625,0.0,0.001953125,0.01495361328125,-0.00341796875,0.48236083984375,0.87579345703125,-0.021845320940825325,-0.04083701169165281,0.18377509134226322
290,11.640062574999774,bno085,0.203125,0.234375,9.95703125,-0.001953125,0.0,0.001953125,0.014892578125,-0.00347900390625,0.48236083984375,0.8758544921875,-0.03127352503455497,-0.043515507275343424,0.18563985624257834
291,11.680059668000013,bno085,0.203125,0.234375,9.91796875,0.001953125,0.0,0.0,0.014892578125,-0.00347900390625,0.48236083984375,0.8758544921875,-0.03127352503455497,-0.043515507275343424,0.18563985624257834
292,11.720058502000029,bno085,0.203125,0.1953125,9.953125,0.001953125,0.0,0.0,0.014892578125,-0.00347900390625,0.48236083984375,0.87579345703125,-0.0313468002108037,-0.04358933913473519,0.18383703401409254
293,11.760058261999802,bno085,0.203125,0.234375,9.91796875,-0.00390625,0.0,0.0,0.014892578125,-0.0035400390625,0.48236083984375,0.8758544921875,-0.03464659914135026,-0.04964106768259084,0.18576828419341476
294,11.800059854999745,bno085,0.203125,0.234375,9.95703125,0.005859375,0.0,-0.001953125,0.014892578125,-0.0035400390625,0.48236083984375,0.8758544921875,-0.03464659914135026,-0.04964106768259084,0.18576828419341476
295,11.840057781999803,bno085,0.203125,0.234375,9.91796875,0.0,0.0,0.001953125,0.014892578125,-0.0035400390625,0.48236083984375,0.8758544921875,-0.03464659914135026,-0.04964106768259084,0.18576828419341476
296,11.880058689999714,bno085,0.203125,0.234375,9.95703125,0.001953125,0.0,-0.001953125,0.014892578125,-0.0035400390625,0.48236083984375,0.8758544921875,-0.03464659914135026,-0.04964106768259084,0.18576828419341476
297,11.920057579000058,bno085,0.203125,0.234375,9.95703125,0.001953125,0.0,-0.001953125,0.014892578125,-0.0035400390625,0.48236083984375,0.8758544921875,-0.03464659914135026,-0.04964106768259084,0.18576828419341476
298,11.960057061000043,bno085,0.203125,0.234375,9.95703125,0.00390625,0.0,0.0,0.01495361328125,-0.00347900390625,0.48236083984375,0.8758544921875,-0.025144696190640446,-0.04688833364893457,0.18570538384442237
299,12.000058043000081,bno085,0.203125,0.234375,9.95703125,0.0,0.0,0.0,0.01495361328125,-0.00347900390625,0.48236083984375,0.8758544921875,-0.025144696190640446,-0.04688833364893457,0.18570538384442237
300,12.040057598999738,bno085,0.203125,0.234375,9.91796875,-0.005859375,0.0,-0.001953125,0.01495361328125,-0.00347900390625,0.48236083984375,0.8758544921875,-0.025144696190640446,-0.04688833364893457,0.18570538384442237
301,12.08005713700004,bno085,0.203125,0.234375,9.95703125,0.0,0.0,-0.001953125,0.01495361328125,-0.00347900390625,0.48236083984375,0.8758544921875,-0.025144696190640446,-0.04688833364893457,0.18570538384442237
302,12.120057026999802,bno085,0.203125,0.234375,9.91796875,0.0,0.0,-0.001953125,0.0150146484375,-0.00341796875,0.48236083984375,0.8758544921875,-0.01564276210767269,-0.04413556708359406,0.18564366111931063
303,12.160059897999872,bno085,0.203125,0.1953125,9.953125,0.0,0.0,0.001953125,0.0150146484375,-0.00341796875,0.48236083984375,0.8758544921875,-0.01564276210767269,-0.04413556708359406,0.18564366111931063
304,12.20005738000009,bno085,0.203125,0.1953125,9.953125,0.001953125,-0.001953125,0.0,0.01495361328125,-0.00341796875,0.48236083984375,0.8758544921875,-0.021771619532649417,-0.04076275325431927,0.18557790547750422
305,12.240058657999725,bno085,0.203125,0.234375,9.91796875,-0.00390625,-0.001953125,0.0,0.01495361328125,-0.00341796875,0.48236083984375,0.8758544921875,-0.021771619532649417,-0.04076275325431927,0.18557790547750422
306,12.280058066000038,bno085,0.203125,0.234375,9.95703125,0.0,0.0,0.0,0.01495361328125,-0.00347900390625,0.48248291015625,0.87579345703125,-0.024986367522978118,-0.046691457825088746,0.20185655357054405
307,12.320060288999684,bno085,0.203125,0.234375,9.95703125,0.0,0.0,0.0,0.01495361328125,-0.00347900390625,0.4825439453125,0.875732421875,-0.024944005006735888,-0.046629961475434765,0.2090316988609934
308,12.360057381999923,bno085,0.203125,0.1953125,9.953125,0.0,0.0,0.0,0.01495361328125,-0.00347900390625,0.4825439453125,0.875732421875,-0.024944005006735888,-0.046629961475434765,0.2090316988609934
309,12.400057105000087,bno085,0.203125,0.234375,9.91796875,0.0,0.0,0.0,0.01495361328125,-0.00347900390625,0.4825439453125,0.875732421875,-0.024944005006735888,-0.046629961475434765,0.2090316988609934
310,12.44005858699984,bno085,0.203125,0.1953125,9.953125,0.0,0.0,0.0,0.01495361328125,-0.00347900390625,0.4825439453125,0.875732421875,-0.024944005006735888,-0.046629961475434765,0.2090316988609934
311,12.480058347000067,bno085,0.203125,0.234375,9.95703125,0.0,0.0,0.0,0.01495361328125,-0.00347900390625,0.4825439453125,0.875732421875,-0.024944005006735888,-0.046629961475434765,0.2090316988609934
312,12.520056995999767,bno085,0.203125,0.234375,9.95703125,0.0,0.0,0.0,0.01495361328125,-0.00347900390625,0.4825439453125,0.875732421875,-0.024944005006735888,-0.046629961475434765,0.2090316988609934
313,12.56003432999978,bno085,0.203125,0.234375,9.95703125,0.0,0.0,0.0,0.01495361328125,-0.00347900390625,0.4825439453125,0.875732421875,-0.024944005006735888,-0.046629961475434765,0.2090316988609934
314,12.600056626999958,bno085,0.203125,0.234375,9.95703125,0.0,0.0,0.0,0.01495361328125,-0.00347900390625,0.4825439453125,0.875732421875,-0.024944005006735888,-0.046629961475434765,0.2090316988609934
315,12.64006405300006,bno085,0.203125,0.234375,9.95703125,0.0,0.0,0.0,0.01495361328125,-0.00347900390625,0.4825439453125,0.875732421875,-0.024944005006735888,-0.046629961475434765,0.2090316988609934
316,12.68005842399998,bno085,0.203125,0.234375,9.95703125,0.0,0.0,0.0,0.01495361328125,-0.00347900390625,0.4825439453125,0.875732421875,-0.024944005006735888,-0.046629961475434765,0.2090316988609934
317,12.720058961999712,bno085,0.203125,0.1953125,9.953125,0.0,0.0,0.0,0.01495361328125,-0.00347900390625,0.4825439453125,0.875732421875,-0.024944005006735888,-0.046629961475434765,0.2090316988609934
318,12.760058832999675,bno085,0.203125,0.1953125,9.953125,0.0,0.0,0.0,0.01495361328125,-0.00347900390625,0.4825439453125,0.875732421875,-0.024944005006735888,-0.046629961475434765,0.2090316988609934
319,12.800058166999861,bno085,0.203125,0.234375,9.95703125,0.0,0.0,0.0,0.01495361328125,-0.00347900390625,0.4825439453125,0.875732421875,-0.024944005006735888,-0.046629961475434765,0.2090316988609934
320,12.840058167999814,bno085,0.203125,0.234375,9.95703125,0.0,0.0,0.0,0.01495361328125,-0.00347900390625,0.4825439453125,0.875732421875,-0.024944005006735888,-0.046629961475434765,0.2090316988609934
321,12.880058889999873,bno085,0.203125,0.234375,9.95703125,0.0,0.0,0.0,0.014892578125,-0.00347900390625,0.4825439453125,0.875732421875,-0.031071980555894173,-0.04325585498847542,0.20896615902636284
322,12.920056909999857,bno085,0.203125,0.234375,9.95703125,0.0,0.0,0.0,0.014892578125,-0.00347900390625,0.4825439453125,0.875732421875,-0.031071980555894173,-0.04325585498847542,0.20896615902636284
323,12.960056799000085,bno085,0.203125,0.234375,9.95703125,0.0,0.0,0.0,0.014892578125,-0.00347900390625,0.4825439453125,0.875732421875,-0.031071980555894173,-0.04325585498847542,0.20896615902636284
324,13.000057410999943,bno085,0.203125,0.234375,9.91796875,0.0,0.0,0.0,0.014892578125,-0.00347900390625,0.4825439453125,0.875732421875,-0.031071980555894173,-0.04325585498847542,0.20896615902636284
325,13.040056559999812,bno085,0.203125,0.1953125,9.953125,0.0,0.0,0.0,0.014892578125,-0.00347900390625,0.4825439453125,0.875732421875,-0.031071980555894173,-0.04325585498847542,0.20896615902636284
326,13.08005717099968,bno085,0.203125,0.234375,9.91796875,0.0,0.0,0.0,0.014892578125,-0.00347900390625,0.4825439453125,0.875732421875,-0.031071980555894173,-0.04325585498847542,0.20896615902636284
327,13.120056708999982,bno085,0.203125,0.1953125,9.953125,0.0,0.0,0.0,0.014892578125,-0.00347900390625,0.4825439453125,0.875732421875,-0.031071980555894173,-0.04325585498847542,0.20896615902636284
328,13.160058005999872,bno085,0.203125,0.234375,9.91796875,0.0,0.0,0.0,0.014892578125,-0.00347900390625,0.4825439453125,0.875732421875,-0.031071980555894173,-0.04325585498847542,0.20896615902636284
329,13.200054320999698,bno085,0.203125,0.234375,9.95703125,0.0,0.0,0.0,0.01483154296875,-0.00347900390625,0.4825439453125,0.875732421875,-0.03719993119358153,-0.03988174864572916,0.20890061908657007
330,13.240054026000053,bno085,0.203125,0.1953125,9.953125,0.0,0.0,0.0,0.01483154296875,-0.00347900390625,0.4825439453125,0.875732421875,-0.03719993119358153,-0.03988174864572916,0.20890061908657007
331,13.280054100999678,bno085,0.203125,0.234375,9.95703125,0.0,0.0,0.0,0.01483154296875,-0.00347900390625,0.4825439453125,0.875732421875,-0.03719993119358153,-0.03988174864572916,0.20890061908657007
332,13.32005378599979,bno085,0.203125,0.234375,9.95703125,0.0,0.0,0.0,0.01483154296875,-0.00347900390625,0.4825439453125,0.875732421875,-0.03719993119358153,-0.03988174864572916,0.20890061908657007
333,13.360056305999933,bno085,0.203125,0.234375,9.95703125,0.0,0.0,0.0,0.01483154296875,-0.0035400390625,0.4825439453125,0.875732421875,-0.04057428181974791,-0.04600644305449134,0.2090292547566819
334,13.400054157999875,bno085,0.203125,0.234375,9.95703125,0.0,0.0,0.0,0.01483154296875,-0.00347900390625,0.4825439453125,0.875732421875,-0.03719993119358153,-0.03988174864572916,0.20890061908657007
335,13.440055750999818,bno085,0.203125,0.1953125,9.953125,0.0,0.0,0.0,0.01483154296875,-0.00347900390625,0.4825439453125,0.875732421875,-0.03719993119358153,-0.03988174864572916,0.20890061908657007
336,13.480054381999707,bno085,0.203125,0.234375,9.95703125,0.0,0.0,0.0,0.01483154296875,-0.00347900390625,0.4825439453125,0.875732421875,-0.03719993119358153,-0.03988174864572916,0.20890061908657007
337,13.520055770999988,bno085,0.203125,0.234375,9.91796875,0.0,0.0,0.0,0.01483154296875,-0.00347900390625,0.4825439453125,0.875732421875,-0.03719993119358153,-0.03988174864572916,0.20890061908657007
338,13.560056771999825,bno085,0.203125,0.1953125,9.9140625,0.0,0.0,0.0,0.01483154296875,-0.00347900390625,0.4825439453125,0.875732421875,-0.03719993119358153,-0.03988174864572916,0.20890061908657007
339,13.600055086999873,bno085,0.203125,0.1953125,9.9140625,0.0,0.0,0.0,0.01483154296875,-0.00347900390625,0.4825439453125,0.875732421875,-0.03719993119358153,-0.03988174864572916,0.20890061908657007
340,13.640056014000038,bno085,0.203125,0.234375,9.95703125,0.0,0.0,0.0,0.01483154296875,-0.00347900390625,0.4825439453125,0.875732421875,-0.03719993119358153,-0.03988174864572916,0.20890061908657007
341,13.680057774000034,bno085,0.203125,0.234375,9.95703125,0.0,0.0,0.0,0.0147705078125,-0.0035400390625,0.4825439453125,0.875732421875,-0.04670220410729609,-0.042632324170451104,0.2089639427159066
342,13.720054107999658,bno085,0.203125,0.234375,9.95703125,0.0,0.0,0.0,0.0147705078125,-0.0035400390625,0.4825439453125,0.875732421875,-0.04670220410729609,-0.042632324170451104,0.2089639427159066
343,13.760058015999675,bno085,0.203125,0.234375,9.95703125,0.0,0.0,0.0,0.0147705078125,-0.0035400390625,0.4825439453125,0.875732421875,-0.04670220410729609,-0.042632324170451104,0.2089639427159066
344,13.800054052999712,bno085,0.203125,0.234375,9.91796875,0.0,0.0,0.0,0.0147705078125,-0.0035400390625,0.4825439453125,0.875732421875,-0.04670220410729609,-0.042632324170451104,0.2089639427159066
345,13.84005396099974,bno085,0.203125,0.234375,9.95703125,0.0,0.0,0.0,0.0147705078125,-0.0035400390625,0.4825439453125,0.875732421875,-0.04670220410729609,-0.042632324170451104,0.2089639427159066
346,13.880053961999693,bno085,0.203125,0.234375,9.91796875,0.0,0.0,0.0,0.0147705078125,-0.0035400390625,0.4825439453125,0.875732421875,-0.04670220410729609,-0.042632324170451104,0.2089639427159066
347,13.920054055000037,bno085,0.203125,0.234375,9.95703125,0.0,0.0,0.0,0.0147705078125,-0.0035400390625,0.4825439453125,0.875732421875,-0.04670220410729609,-0.042632324170451104,0.2089639427159066
348,13.960053963000064,bno085,0.203125,0.234375,9.95703125,0.0,0.0,0.0,0.01483154296875,-0.0035400390625,0.4825439453125,0.875732421875,-0.04057428181974791,-0.04600644305449134,0.2090292547566819
349,14.000053815999763,bno085,0.203125,0.234375,9.95703125,0.0,0.0,0.0,0.01483154296875,-0.00347900390625,0.4825439453125,0.875732421875,-0.03719993119358153,-0.03988174864572916,0.20890061908657007
350,14.04005370599998,bno085,0.203125,0.234375,9.95703125,0.0,0.0,0.0,0.01483154296875,-0.00347900390625,0.4825439453125,0.875732421875,-0.03719993119358153,-0.03988174864572916,0.20890061908657007
351,14.080054576999828,bno085,0.203125,0.234375,9.91796875,0.0,0.0,0.0,0.01483154296875,-0.00347900390625,0.4825439453125,0.875732421875,-0.03719993119358153,-0.03988174864572916,0.20890061908657007
352,14.120054040000014,bno085,0.203125,0.234375,9.95703125,0.0,0.0,0.0,0.014892578125,-0.00347900390625,0.4825439453125,0.875732421875,-0.031071980555894173,-0.04325585498847542,0.20896615902636284
353,14.160056040999734,bno085,0.203125,0.1953125,9.953125,0.0,0.0,0.0,0.014892578125,-0.00347900390625,0.4825439453125,0.875732421875,-0.031071980555894173,-0.04325585498847542,0.20896615902636284
354,14.200054448999708,bno085,0.203125,0.234375,9.91796875,0.0,0.0,0.0,0.014892578125,-0.00347900390625,0.4825439453125,0.875732421875,-0.031071980555894173,-0.04325585498847542,0.20896615902636284
355,14.24005398700001,bno085,0.203125,0.234375,9.91796875,0.0,0.0,0.0,0.014892578125,-0.00347900390625,0.4825439453125,0.875732421875,-0.031071980555894173,-0.04325585498847542,0.20896615902636284
356,14.28005383899972,bno085,0.203125,0.234375,9.95703125,0.0,0.0,0.0,0.01495361328125,-0.00341796875,0.4825439453125,0.875732421875,-0.021569648274018884,-0.04050523438122907,0.20890424083310727
357,14.320054635999895,bno085,0.203125,0.1953125,9.953125,0.0,0.0,0.0,0.01495361328125,-0.00341796875,0.4825439453125,0.875732421875,-0.021569648274018884,-0.04050523438122907,0.20890424083310727
358,14.360054210999806,bno085,0.203125,0.234375,9.95703125,0.0,0.0,0.0,0.01495361328125,-0.00341796875,0.4825439453125,0.875732421875,-0.021569648274018884,-0.04050523438122907,0.20890424083310727
359,14.400053785999717,bno085,0.203125,0.234375,9.91796875,0.0,0.0,0.0,0.01495361328125,-0.00341796875,0.4825439453125,0.875732421875,-0.021569648274018884,-0.04050523438122907,0.20890424083310727
360,14.44005417499966,bno085,0.203125,0.1953125,9.9140625,0.0,0.0,0.0,0.01495361328125,-0.00341796875,0.4825439453125,0.875732421875,-0.021569648274018884,-0.04050523438122907,0.20890424083310727
361,14.480054139000003,bno085,0.203125,0.234375,9.91796875,0.0,0.0,0.0,0.01495361328125,-0.00341796875,0.4825439453125,0.875732421875,-0.021569648274018884,-0.04050523438122907,0.20890424083310727
362,14.520053898999777,bno085,0.203125,0.1953125,9.953125,0.0,0.0,0.0,0.01495361328125,-0.00341796875,0.4825439453125,0.875732421875,-0.021569648274018884,-0.04050523438122907,0.20890424083310727
363,14.560054102999857,bno085,0.203125,0.234375,9.91796875,0.0,0.0,0.0,0.01495361328125,-0.00341796875,0.4825439453125,0.875732421875,-0.021569648274018884,-0.04050523438122907,0.20890424083310727
364,14.600053826000021,bno085,0.203125,0.234375,9.95703125,0.0,0.0,0.0,0.014892578125,-0.00341796875,0.4825439453125,0.875732421875,-0.027697627390354515,-0.0371311405719911,0.2088384729950676
365,14.640055845000006,bno085,0.203125,0.1953125,9.953125,0.0,0.0,0.0,0.014892578125,-0.00341796875,0.4825439453125,0.875732421875,-0.027697627390354515,-0.0371311405719911,0.2088384729950676
366,14.680054290000044,bno085,0.203125,0.234375,9.91796875,0.0,0.0,0.0,0.014892578125,-0.00347900390625,0.4825439453125,0.875732421875,-0.031071980555894173,-0.04325585498847542,0.20896615902636284
367,14.720054549999986,bno085,0.203125,0.234375,9.91796875,0.0,0.0,0.0,0.014892578125,-0.00347900390625,0.4825439453125,0.875732421875,-0.031071980555894173,-0.04325585498847542,0.20896615902636284
368,14.760054383999886,bno085,0.203125,0.234375,9.95703125,0.0,0.0,0.0,0.01483154296875,-0.00347900390625,0.4825439453125,0.875732421875,-0.03719993119358153,-0.03988174864572916,0.20890061908657007
369,14.80005401499966,bno085,0.203125,0.234375,9.91796875,0.0,0.0,0.0,0.01483154296875,-0.00347900390625,0.4825439453125,0.875732421875,-0.03719993119358153,-0.03988174864572916,0.20890061908657007
370,14.840053756000088,bno085,0.203125,0.1953125,9.953125,0.0,0.0,0.0,0.01483154296875,-0.00347900390625,0.4825439453125,0.875732421875,-0.03719993119358153,-0.03988174864572916,0.20890061908657007
371,14.880053960999703,bno085,0.203125,0.234375,9.91796875,0.0,0.0,0.0,0.01483154296875,-0.00347900390625,0.4825439453125,0.875732421875,-0.03719993119358153,-0.03988174864572916,0.20890061908657007
372,14.92005373899974,bno085,0.203125,0.234375,9.95703125,0.0,0.0,0.0,0.01483154296875,-0.00347900390625,0.4825439453125,0.875732421875,-0.03719993119358153,-0.03988174864572916,0.20890061908657007
373,14.960053979999884,bno085,0.203125,0.234375,9.95703125,0.0,0.0,0.0,0.01483154296875,-0.00347900390625,0.4825439453125,0.875732421875,-0.03719993119358153,-0.03988174864572916,0.20890061908657007
374,15.00005414799989,bno085,0.203125,0.234375,9.95703125,0.0,0.0,0.0,0.01483154296875,-0.00347900390625,0.4825439453125,0.875732421875,-0.03719993119358153,-0.03988174864572916,0.20890061908657007
375,15.04005411099979,bno085,0.203125,0.234375,9.91796875,0.0,0.0,0.0,0.01483154296875,-0.00347900390625,0.4825439453125,0.875732421875,-0.03719993119358153,-0.03988174864572916,0.20890061908657007
376,15.080054667999775,bno085,0.203125,0.1953125,9.9140625,0.0,0.0,0.0,0.014892578125,-0.00347900390625,0.4825439453125,0.875732421875,-0.031071980555894173,-0.04325585498847542,0.20896615902636284
377,15.120054205000088,bno085,0.203125,0.234375,9.95703125,0.0,0.0,0.0,0.014892578125,-0.00347900390625,0.4825439453125,0.875732421875,-0.031071980555894173,-0.04325585498847542,0.20896615902636284
378,15.16005435399984,bno085,0.203125,0.234375,9.95703125,0.0,0.0,0.0,0.014892578125,-0.00347900390625,0.4825439453125,0.875732421875,-0.031071980555894173,-0.04325585498847542,0.20896615902636284
379,15.200054650999846,bno085,0.203125,0.234375,9.91796875,0.0,0.0,0.0,0.014892578125,-0.00347900390625,0.4825439453125,0.875732421875,-0.031071980555894173,-0.04325585498847542,0.20896615902636284
380,15.24005411500002,bno085,0.203125,0.234375,9.95703125,0.0,0.0,0.0,0.014892578125,-0.00347900390625,0.4825439453125,0.875732421875,-0.031071980555894173,-0.04325585498847542,0.20896615902636284
381,15.28005409699972,bno085,0.203125,0.234375,9.95703125,0.0,0.0,0.0,0.014892578125,-0.00347900390625,0.4825439453125,0.875732421875,-0.031071980555894173,-0.04325585498847542,0.20896615902636284
382,15.320053819999885,bno085,0.203125,0.234375,9.95703125,0.0,0.0,0.0,0.014892578125,-0.00347900390625,0.4825439453125,0.875732421875,-0.031071980555894173,-0.04325585498847542,0.20896615902636284
383,15.360054042999764,bno085,0.203125,0.234375,9.95703125,0.0,0.0,0.0,0.014892578125,-0.00347900390625,0.4825439453125,0.875732421875,-0.031071980555894173,-0.04325585498847542,0.20896615902636284
384,15.400053913999727,bno085,0.203125,0.234375,9.95703125,0.0,0.0,0.0,0.014892578125,-0.00347900390625,0.4825439453125,0.875732421875,-0.031071980555894173,-0.04325585498847542,0.20896615902636284
385,15.440053895999881,bno085,0.203125,0.234375,9.95703125,0.0,0.0,0.0,0.014892578125,-0.00347900390625,0.4825439453125,0.875732421875,-0.031071980555894173,-0.04325585498847542,0.20896615902636284
386,15.480054285999813,bno085,0.203125,0.234375,9.95703125,0.0,0.0,0.0,0.01495361328125,-0.00341796875,0.4825439453125,0.875732421875,-0.021569648274018884,-0.04050523438122907,0.20890424083310727
387,15.52005430500003,bno085,0.203125,0.234375,9.95703125,0.0,0.0,0.0,0.01495361328125,-0.00341796875,0.4825439453125,0.875732421875,-0.021569648274018884,-0.04050523438122907,0.20890424083310727
388,15.560054008999941,bno085,0.203125,0.234375,9.95703125,0.0,0.0,0.0,0.01495361328125,-0.00341796875,0.4825439453125,0.875732421875,-0.021569648274018884,-0.04050523438122907,0.20890424083310727
389,15.60005384399983,bno085,0.203125,0.234375,9.95703125,0.0,0.0,0.0,0.01495361328125,-0.00341796875,0.4825439453125,0.875732421875,-0.021569648274018884,-0.04050523438122907,0.20890424083310727
390,15.640055326000038,bno085,0.203125,0.1953125,9.953125,0.0,0.0,0.0,0.0150146484375,-0.00341796875,0.4825439453125,0.875732421875,-0.01544164413952793,-0.04387932832505917,0.20897000856479106
391,15.680056603999674,bno085,0.203125,0.234375,9.95703125,0.0,0.0,0.0,0.0150146484375,-0.00341796875,0.4825439453125,0.875732421875,-0.01544164413952793,-0.04387932832505917,0.20897000856479106
392,15.720057679000092,bno085,0.203125,0.234375,9.95703125,0.0,0.0,0.0,0.0150146484375,-0.00341796875,0.4825439453125,0.875732421875,-0.01544164413952793,-0.04387932832505917,0.20897000856479106
393,15.760057179999876,bno085,0.203125,0.234375,9.95703125,0.0,0.0,0.0,0.0150146484375,-0.00335693359375,0.4825439453125,0.875732421875,-0.012067284647665722,-0.03775458122657306,0.20884350017534734
394,15.80005436600004,bno085,0.203125,0.234375,9.95703125,0.0,0.0,0.0,0.0150146484375,-0.00335693359375,0.4825439453125,0.875732421875,-0.012067284647665722,-0.03775458122657306,0.20884350017534734
395,15.84005662599975,bno085,0.203125,0.234375,9.95703125,0.0,0.0,0.0,0.0150146484375,-0.00335693359375,0.4825439453125,0.875732421875,-0.012067284647665722,-0.03775458122657306,0.20884350017534734
396,15.88005695999982,bno085,0.203125,0.234375,9.95703125,0.0,0.0,0.0,0.01507568359375,-0.00335693359375,0.4825439453125,0.875732421875,-0.005939251799340303,-0.0411286626350597,0.20890949580328255
397,15.92005690499991,bno085,0.203125,0.234375,9.91796875,0.0,0.0,0.0,0.01507568359375,-0.00335693359375,0.4825439453125,0.875732421875,-0.005939251799340303,-0.0411286626350597,0.20890949580328255
398,15.960056571999758,bno085,0.203125,0.234375,9.91796875,0.0,0.0,0.0,0.01507568359375,-0.00335693359375,0.4825439453125,0.875732421875,-0.005939251799340303,-0.0411286626350597,0.20890949580328255
399,16.000054331999763,bno085,0.203125,0.234375,9.95703125,0.0,0.0,0.0,0.01507568359375,-0.00335693359375,0.4825439453125,0.875732421875,-0.005939251799340303,-0.0411286626350597,0.20890949580328255
400,16.040053906999674,bno085,0.203125,0.234375,9.91796875,0.0,0.0,0.0,0.01507568359375,-0.00335693359375,0.4825439453125,0.875732421875,-0.005939251799340303,-0.0411286626350597,0.20890949580328255
401,16.08005563000006,bno085,0.203125,0.234375,9.91796875,0.0,0.0,0.0,0.01507568359375,-0.00335693359375,0.4825439453125,0.875732421875,-0.005939251799340303,-0.0411286626350597,0.20890949580328255
402,16.120054593000077,bno085,0.203125,0.1953125,9.953125,0.0,0.0,0.0,0.01507568359375,-0.00335693359375,0.4825439453125,0.875732421875,-0.005939251799340303,-0.0411286626350597,0.20890949580328255
403,16.16005420500005,bno085,0.203125,0.234375,9.91796875,0.0,0.0,0.0,0.01513671875,-0.00335693359375,0.4825439453125,0.875732421875,0.00018880630744294417,-0.04450274418008252,0.20897549132366255
404,16.200054335999994,bno085,0.203125,0.234375,9.91796875,0.0,0.0,0.0,0.01513671875,-0.00335693359375,0.4825439453125,0.875732421875,0.00018880630744294417,-0.04450274418008252,0.20897549132366255
405,16.240053947999968,bno085,0.203125,0.1953125,9.953125,0.0,0.0,0.0,0.01513671875,-0.00335693359375,0.4825439453125,0.875732421875,0.00018880630744294417,-0.04450274418008252,0.20897549132366255
406,16.28005509600007,bno085,0.203125,0.1953125,9.953125,0.0,0.0,0.0,0.01507568359375,-0.00335693359375,0.4825439453125,0.875732421875,-0.005939251799340303,-0.0411286626350597,0.20890949580328255
407,16.320055541999864,bno085,0.203125,0.1953125,9.953125,0.0,0.0,0.0,0.01507568359375,-0.00335693359375,0.4825439453125,0.875732421875,-0.005939251799340303,-0.0411286626350597,0.20890949580328255
408,16.36005620900005,bno085,0.203125,0.234375,9.91796875,0.0,0.0,0.0,0.01507568359375,-0.00335693359375,0.4825439453125,0.875732421875,-0.005939251799340303,-0.0411286626350597,0.20890949580328255
409,16.400056895000034,bno085,0.203125,0.234375,9.95703125,0.0,0.0,0.0,0.0150146484375,-0.00335693359375,0.4825439453125,0.875732421875,-0.012067284647665722,-0.03775458122657306,0.20884350017534734
410,16.440054876999966,bno085,0.203125,0.234375,9.91796875,0.0,0.0,0.0,0.0150146484375,-0.00335693359375,0.4825439453125,0.875732421875,-0.012067284647665722,-0.03775458122657306,0.20884350017534734
411,16.480054340999686,bno085,0.203125,0.234375,9.95703125,0.0,0.0,0.0,0.0150146484375,-0.00341796875,0.4825439453125,0.875732421875,-0.01544164413952793,-0.04387932832505917,0.20897000856479106
412,16.52005387899999,bno085,0.203125,0.234375,9.95703125,0.0,0.0,0.0,0.01495361328125,-0.00341796875,0.4825439453125,0.875732421875,-0.021569648274018884,-0.04050523438122907,0.20890424083310727
413,16.560053934999814,bno085,0.203125,0.234375,9.95703125,0.0,0.0,0.0,0.01495361328125,-0.00341796875,0.4825439453125,0.875732421875,-0.021569648274018884,-0.04050523438122907,0.20890424083310727
414,16.600053861000106,bno085,0.203125,0.234375,9.91796875,0.0,0.0,0.0,0.01495361328125,-0.00341796875,0.4825439453125,0.875732421875,-0.021569648274018884,-0.04050523438122907,0.20890424083310727
415,16.640055343999848,bno085,0.203125,0.234375,9.95703125,0.0,0.0,0.0,0.01495361328125,-0.00341796875,0.4825439453125,0.875732421875,-0.021569648274018884,-0.04050523438122907,0.20890424083310727
416,16.680056400000012,bno085,0.203125,0.234375,9.91796875,0.0,0.0,0.0,0.01495361328125,-0.00341796875,0.4825439453125,0.875732421875,-0.021569648274018884,-0.04050523438122907,0.20890424083310727
417,16.720054955999785,bno085,0.203125,0.234375,9.91796875,0.0,0.0,0.0,0.01495361328125,-0.00341796875,0.4825439453125,0.875732421875,-0.021569648274018884,-0.04050523438122907,0.20890424083310727
418,16.760054327000034,bno085,0.203125,0.234375,9.91796875,0.0,0.0,0.0,0.01495361328125,-0.00341796875,0.4825439453125,0.875732421875,-0.021569648274018884,-0.04050523438122907,0.20890424083310727
419,16.80005388399968,bno085,0.203125,0.234375,9.95703125,0.0,0.0,0.0,0.01495361328125,-0.00341796875,0.4825439453125,0.875732421875,-0.021569648274018884,-0.04050523438122907,0.20890424083310727
420,16.84005377299991,bno085,0.203125,0.234375,9.91796875,0.0,0.0,0.0,0.01495361328125,-0.00341796875,0.4825439453125,0.875732421875,-0.021569648274018884,-0.04050523438122907,0.20890424083310727
421,16.88005455199982,bno085,0.203125,0.234375,9.95703125,0.0,0.0,0.0,0.01495361328125,-0.00341796875,0.4825439453125,0.875732421875,-0.021569648274018884,-0.04050523438122907,0.20890424083310727
422,16.920055885999773,bno085,0.203125,0.234375,9.91796875,0.0,0.0,0.0,0.01495361328125,-0.00341796875,0.4825439453125,0.875732421875,-0.021569648274018884,-0.04050523438122907,0.20890424083310727
423,16.960054108999884,bno085,0.203125,0.234375,9.95703125,0.0,0.0,0.0,0.01495361328125,-0.00341796875,0.4825439453125,0.875732421875,-0.021569648274018884,-0.04050523438122907,0.20890424083310727
424,17.000053997999657,bno085,0.203125,0.234375,9.91796875,0.0,0.0,0.0,0.0150146484375,-0.00341796875,0.4825439453125,0.875732421875,-0.01544164413952793,-0.04387932832505917,0.20897000856479106
425,17.040053813999748,bno085,0.203125,0.234375,9.91796875,0.0,0.0,0.0,0.0150146484375,-0.00341796875,0.4825439453125,0.875732421875,-0.01544164413952793,-0.04387932832505917,0.20897000856479106
426,17.08005446299967,bno085,0.203125,0.234375,9.95703125,0.0,0.0,0.0,0.0150146484375,-0.00341796875,0.4825439453125,0.875732421875,-0.01544164413952793,-0.04387932832505917,0.20897000856479106
427,17.12005388999978,bno085,0.203125,0.234375,9.95703125,0.0,0.0,0.0,0.0150146484375,-0.00335693359375,0.4825439453125,0.875732421875,-0.012067284647665722,-0.03775458122657306,0.20884350017534734
428,17.16005607499983,bno085,0.203125,0.234375,9.95703125,0.0,0.0,0.0,0.01507568359375,-0.00335693359375,0.4825439453125,0.875732421875,-0.005939251799340303,-0.0411286626350597,0.20890949580328255
429,17.200054279999677,bno085,0.203125,0.234375,9.95703125,0.0,0.0,0.0,0.01507568359375,-0.00335693359375,0.4825439453125,0.875732421875,-0.005939251799340303,-0.0411286626350597,0.20890949580328255
430,17.240054187999704,bno085,0.203125,0.234375,9.95703125,0.0,0.0,0.0,0.01507568359375,-0.00335693359375,0.4825439453125,0.875732421875,-0.005939251799340303,-0.0411286626350597,0.20890949580328255
431,17.28005402200006,bno085,0.203125,0.234375,9.95703125,0.0,0.0,0.0,0.01507568359375,-0.00335693359375,0.4825439453125,0.875732421875,-0.005939251799340303,-0.0411286626350597,0.20890949580328255
432,17.320053966999694,bno085,0.203125,0.234375,9.95703125,0.0,0.0,0.0,0.01507568359375,-0.00335693359375,0.4825439453125,0.875732421875,-0.005939251799340303,-0.0411286626350597,0.20890949580328255
433,17.360053837999658,bno085,0.203125,0.234375,9.95703125,0.0,0.0,0.0,0.01507568359375,-0.00335693359375,0.4825439453125,0.875732421875,-0.005939251799340303,-0.0411286626350597,0.20890949580328255
434,17.400053839000066,bno085,0.203125,0.234375,9.95703125,0.0,0.0,0.0,0.01507568359375,-0.00335693359375,0.4825439453125,0.875732421875,-0.005939251799340303,-0.0411286626350597,0.20890949580328255
435,17.440057728999818,bno085,0.203125,0.234375,9.95703125,0.0,0.0,0.0,0.01513671875,-0.00335693359375,0.4825439453125,0.875732421875,0.00018880630744294417,-0.04450274418008252,0.20897549132366255
436,17.480053951999707,bno085,0.203125,0.234375,9.91796875,0.0,0.0,0.0,0.01513671875,-0.00335693359375,0.4825439453125,0.875732421875,0.00018880630744294417,-0.04450274418008252,0.20897549132366255
437,17.520056879000094,bno085,0.203125,0.234375,9.95703125,0.0,0.0,0.0,0.01513671875,-0.00335693359375,0.4825439453125,0.875732421875,0.00018880630744294417,-0.04450274418008252,0.20897549132366255
438,17.560056860999794,bno085,0.203125,0.1953125,9.953125,0.0,0.0,0.0,0.01513671875,-0.00335693359375,0.4825439453125,0.875732421875,0.00018880630744294417,-0.04450274418008252,0.20897549132366255
439,17.600054027999704,bno085,0.203125,0.234375,9.95703125,0.0,0.0,0.0,0.01513671875,-0.00335693359375,0.4825439453125,0.875732421875,0.00018880630744294417,-0.04450274418008252,0.20897549132366255
440,17.64005634399973,bno085,0.203125,0.234375,9.95703125,0.0,0.0,0.0,0.01513671875,-0.00335693359375,0.4825439453125,0.875732421875,0.00018880630744294417,-0.04450274418008252,0.20897549132366255
441,17.680057547999695,bno085,0.203125,0.234375,9.95703125,0.0,0.0,0.0,0.01507568359375,-0.00335693359375,0.4825439453125,0.875732421875,-0.005939251799340303,-0.0411286626350597,0.20890949580328255
442,17.720055085999775,bno085,0.203125,0.234375,9.95703125,0.0,0.0,0.0,0.01507568359375,-0.00335693359375,0.4825439453125,0.875732421875,-0.005939251799340303,-0.0411286626350597,0.20890949580328255
443,17.76005577199976,bno085,0.203125,0.234375,9.95703125,0.0,0.0,0.0,0.01507568359375,-0.00335693359375,0.48260498046875,0.875732421875,-0.005822317861482284,-0.04099415512967939,0.21788734148960445
444,17.800055809999776,bno085,0.203125,0.234375,9.95703125,0.0,0.0,0.0,0.01507568359375,-0.00335693359375,0.48260498046875,0.875732421875,-0.005822317861482284,-0.04099415512967939,0.21788734148960445
445,17.840054032999888,bno085,0.203125,0.234375,9.95703125,0.0,0.0,0.0,0.01507568359375,-0.00335693359375,0.48260498046875,0.875732421875,-0.005822317861482284,-0.04099415512967939,0.21788734148960445
446,17.880054107999968,bno085,0.203125,0.1953125,9.953125,0.0,0.0,0.0,0.01507568359375,-0.00335693359375,0.48260498046875,0.875732421875,-0.005822317861482284,-0.04099415512967939,0.21788734148960445
447,17.920054422999783,bno085,0.203125,0.234375,9.91796875,0.0,0.0,0.0,0.01507568359375,-0.00335693359375,0.48260498046875,0.875732421875,-0.005822317861482284,-0.04099415512967939,0.21788734148960445
448,17.960053682999842,bno085,0.203125,0.234375,9.95703125,0.0,0.0,0.0,0.01507568359375,-0.00335693359375,0.48260498046875,0.875732421875,-0.005822317861482284,-0.04099415512967939,0.21788734148960445
449,18.00005438800008,bno085,0.203125,0.234375,9.91796875,0.0,0.0,0.0,0.01507568359375,-0.00335693359375,0.48260498046875,0.875732421875,-0.005822317861482284,-0.04099415512967939,0.21788734148960445
450,18.040053833,bno085,0.203125,0.234375,9.91796875,0.0,0.0,0.0,0.0150146484375,-0.00335693359375,0.48260498046875,0.875732421875,-0.011950350541063913,-0.03761964713451868,0.2178213450577016
451,18.08005420399968,bno085,0.203125,0.234375,9.91796875,0.0,0.0,0.0,0.0150146484375,-0.00335693359375,0.48260498046875,0.875732421875,-0.011950350541063913,-0.03761964713451868,0.2178213450577016
452,18.120054427000014,bno085,0.203125,0.234375,9.91796875,0.0,0.0,0.0,0.0150146484375,-0.00335693359375,0.48260498046875,0.875732421875,-0.011950350541063913,-0.03761964713451868,0.2178213450577016
453,18.16005409399986,bno085,0.203125,0.234375,9.95703125,0.0,0.0,0.0,0.0150146484375,-0.00335693359375,0.48260498046875,0.875732421875,-0.011950350541063913,-0.03761964713451868,0.2178213450577016
454,18.200054002999877,bno085,0.203125,0.1953125,9.9140625,0.0,0.0,0.0,0.0150146484375,-0.00335693359375,0.48260498046875,0.875732421875,-0.011950350541063913,-0.03761964713451868,0.2178213450577016
455,18.240054076999968,bno085,0.203125,0.234375,9.95703125,0.0,0.0,0.0,0.0150146484375,-0.00335693359375,0.48260498046875,0.875732421875,-0.011950350541063913,-0.03761964713451868,0.2178213450577016
456,18.280053781999868,bno085,0.203125,0.234375,9.95703125,0.0,0.0,0.0,0.0150146484375,-0.00335693359375,0.48260498046875,0.875732421875,-0.011950350541063913,-0.03761964713451868,0.2178213450577016
457,18.320054078999874,bno085,0.203125,0.234375,9.91796875,0.0,0.0,0.0,0.0150146484375,-0.00341796875,0.48260498046875,0.875732421875,-0.015325136613982588,-0.0437443940659522,0.21794784892763958
458,18.36005543200008,bno085,0.203125,0.234375,9.95703125,0.0,0.0,0.0,0.0150146484375,-0.00341796875,0.48260498046875,0.875732421875,-0.015325136613982588,-0.0437443940659522,0.21794784892763958
459,18.400054302999706,bno085,0.203125,0.234375,9.91796875,0.0,0.0,0.0,0.0150146484375,-0.00341796875,0.48260498046875,0.875732421875,-0.015325136613982588,-0.0437443940659522,0.21794784892763958
460,18.440057173999776,bno085,0.203125,0.234375,9.95703125,0.0,0.0,0.0,0.0150146484375,-0.00341796875,0.48260498046875,0.875732421875,-0.015325136613982588,-0.0437443940659522,0.21794784892763958
461,18.480054008000025,bno085,0.203125,0.234375,9.95703125,0.0,0.0,0.0,0.0150146484375,-0.00341796875,0.48260498046875,0.875732421875,-0.015325136613982588,-0.0437443940659522,0.21794784892763958
462,18.52005756399967,bno085,0.203125,0.234375,9.91796875,0.0,0.0,0.0,0.0150146484375,-0.00341796875,0.48260498046875,0.875732421875,-0.015325136613982588,-0.0437443940659522,0.21794784892763958
463,18.56005667599993,bno085,0.203125,0.234375,9.95703125,0.0,0.0,0.0,0.0150146484375,-0.00341796875,0.48260498046875,0.875732421875,-0.015325136613982588,-0.0437443940659522,0.21794784892763958
464,18.600056954999673,bno085,0.203125,0.234375,9.95703125,0.0,0.0,0.0,0.0150146484375,-0.00341796875,0.48260498046875,0.875732421875,-0.015325136613982588,-0.0437443940659522,0.21794784892763958
465,18.64005856699987,bno085,0.203125,0.234375,9.95703125,0.0,0.0,0.0,0.0150146484375,-0.00335693359375,0.48260498046875,0.875732421875,-0.011950350541063913,-0.03761964713451868,0.2178213450577016
466,18.680057918999864,bno085,0.203125,0.234375,9.95703125,0.0,0.0,0.0,0.0150146484375,-0.00335693359375,0.48260498046875,0.875732421875,-0.011950350541063913,-0.03761964713451868,0.2178213450577016
467,18.720058697999775,bno085,0.203125,0.1953125,9.9140625,0.0,0.0,0.0,0.0150146484375,-0.00335693359375,0.48260498046875,0.875732421875,-0.011950350541063913,-0.03761964713451868,0.2178213450577016
468,18.760059273000024,bno085,0.203125,0.234375,9.95703125,0.0,0.0,0.0,0.01507568359375,-0.00335693359375,0.48260498046875,0.875732421875,-0.005822317861482284,-0.04099415512967939,0.21788734148960445
469,18.800058476999766,bno085,0.203125,0.234375,9.91796875,0.0,0.0,0.0,0.01507568359375,-0.00335693359375,0.48260498046875,0.875732421875,-0.005822317861482284,-0.04099415512967939,0.21788734148960445
470,18.840057477999835,bno085,0.203125,0.234375,9.95703125,0.0,0.0,0.0,0.01507568359375,-0.00335693359375,0.48260498046875,0.875732421875,-0.005822317861482284,-0.04099415512967939,0.21788734148960445
471,18.880056904999947,bno085,0.203125,0.234375,9.95703125,0.0,0.0,0.0,0.01507568359375,-0.00335693359375,0.48260498046875,0.875732421875,-0.005822317861482284,-0.04099415512967939,0.21788734148960445
472,18.920056738999847,bno085,0.203125,0.234375,9.95703125,0.0,0.0,0.0,0.01507568359375,-0.00335693359375,0.48260498046875,0.875732421875,-0.005822317861482284,-0.04099415512967939,0.21788734148960445
473,18.96005725799978,bno085,0.203125,0.234375,9.91796875,0.0,0.0,0.0,0.01507568359375,-0.00335693359375,0.48260498046875,0.875732421875,-0.005822317861482284,-0.04099415512967939,0.21788734148960445
474,19.000057147999996,bno085,0.203125,0.234375,9.95703125,0.0,0.0,0.0,0.01507568359375,-0.00335693359375,0.48260498046875,0.875732421875,-0.005822317861482284,-0.04099415512967939,0.21788734148960445
475,19.040056592999917,bno085,0.203125,0.234375,9.95703125,0.0,0.0,0.0,0.01507568359375,-0.00335693359375,0.48260498046875,0.875732421875,-0.005822317861482284,-0.04099415512967939,0.21788734148960445
476,19.080056797999987,bno085,0.203125,0.234375,9.91796875,0.0,0.0,0.0,0.01507568359375,-0.00335693359375,0.48260498046875,0.875732421875,-0.005822317861482284,-0.04099415512967939,0.21788734148960445
477,19.120058557999982,bno085,0.203125,0.234375,9.95703125,0.0,0.0,0.0,0.01507568359375,-0.00335693359375,0.48260498046875,0.875732421875,-0.005822317861482284,-0.04099415512967939,0.21788734148960445
478,19.16005853999968,bno085,0.203125,0.234375,9.95703125,0.0,0.0,0.0,0.01507568359375,-0.00335693359375,0.4830322265625,0.87548828125,-0.005301129147368345,-0.04035167121869709,0.27353677220222367
479,19.200056393000068,bno085,0.203125,0.234375,9.91796875,0.0,0.0,0.0,0.01507568359375,-0.00335693359375,0.483154296875,0.87542724609375,-0.005141311079980184,-0.04015746952129498,0.2896981198836946
480,19.240056892999746,bno085,0.203125,0.234375,9.95703125,0.0,0.0,0.0,0.01507568359375,-0.00335693359375,0.483154296875,0.87542724609375,-0.005141311079980184,-0.04015746952129498,0.2896981198836946
481,19.2800591350001,bno085,0.203125,0.234375,9.95703125,0.0,0.0,0.0,0.01507568359375,-0.00335693359375,0.483154296875,0.87542724609375,-0.005141311079980184,-0.04015746952129498,0.2896981198836946
482,19.320059209999727,bno085,0.203125,0.234375,9.91796875,0.0,0.0,0.0,0.01507568359375,-0.00335693359375,0.4835205078125,0.87518310546875,-0.004735646913484247,-0.03964989627683307,0.33639356107252266
483,19.360056969999732,bno085,0.203125,0.234375,9.95703125,0.0,0.0,0.0,0.01507568359375,-0.00335693359375,0.48358154296875,0.8751220703125,-0.004692756372826392,-0.03959030920610325,0.34357810078523315
484,19.400057229999675,bno085,0.203125,0.234375,9.95703125,0.0,0.0,0.0,0.01507568359375,-0.00335693359375,0.48358154296875,0.8751220703125,-0.004692756372826392,-0.03959030920610325,0.34357810078523315
485,19.44005762000006,bno085,0.203125,0.234375,9.95703125,0.0,0.0,0.0,0.01507568359375,-0.00335693359375,0.48358154296875,0.8751220703125,-0.004692756372826392,-0.03959030920610325,0.34357810078523315
486,19.480058306000046,bno085,0.203125,0.1953125,9.9140625,0.0,0.0,0.0,0.01507568359375,-0.00335693359375,0.48358154296875,0.8751220703125,-0.004692756372826392,-0.03959030920610325,0.34357810078523315
487,19.520058009999957,bno085,0.203125,0.234375,9.91796875,0.0,0.0,0.0,0.01507568359375,-0.0032958984375,0.48358154296875,0.8751220703125,-0.0013111402803967348,-0.033469808900476024,0.34345265354867743
488,19.560058862999995,bno085,0.203125,0.234375,9.95703125,0.0,0.0,0.0,0.01513671875,-0.0032958984375,0.48358154296875,0.8751220703125,0.004812654657166236,-0.03685113153746666,0.3435189368791831
489,19.600057492999895,bno085,0.203125,0.234375,9.91796875,0.0,0.0,0.0,0.01513671875,-0.0032958984375,0.48358154296875,0.8751220703125,0.004812654657166236,-0.03685113153746666,0.3435189368791831
490,19.64006190200007,bno085,0.203125,0.234375,9.91796875,0.0,0.0,0.0,0.01513671875,-0.0032958984375,0.48358154296875,0.8751220703125,0.004812654657166236,-0.03685113153746666,0.3435189368791831
491,19.680056772999706,bno085,0.203125,0.1953125,9.9140625,0.0,0.0,0.0,0.01513671875,-0.0032958984375,0.48358154296875,0.8751220703125,0.004812654657166236,-0.03685113153746666,0.3435189368791831
492,19.72005768100007,bno085,0.203125,0.1953125,9.953125,0.0,0.0,0.0,0.01513671875,-0.0032958984375,0.48358154296875,0.8751220703125,0.004812654657166236,-0.03685113153746666,0.3435189368791831
493,19.760058088999813,bno085,0.203125,0.234375,9.95703125,0.0,0.0,0.0,0.01513671875,-0.0032958984375,0.48358154296875,0.8751220703125,0.004812654657166236,-0.03685113153746666,0.3435189368791831
494,19.800057089999882,bno085,0.203125,0.234375,9.95703125,0.0,0.0,0.0,0.01513671875,-0.0032958984375,0.48358154296875,0.8751220703125,0.004812654657166236,-0.03685113153746666,0.3435189368791831
495,19.840058164999846,bno085,0.203125,0.234375,9.95703125,0.0,0.0,0.0,0.01513671875,-0.0032958984375,0.48358154296875,0.8751220703125,0.004812654657166236,-0.03685113153746666,0.3435189368791831
496,19.88005714699966,bno085,0.203125,0.234375,9.91796875,0.0,0.0,0.0,0.01513671875,-0.0032958984375,0.48358154296875,0.8751220703125,0.004812654657166236,-0.03685113153746666,0.3435189368791831
497,19.92005824099988,bno085,0.203125,0.234375,9.95703125,0.0,0.0,0.0,0.01507568359375,-0.00335693359375,0.48358154296875,0.8751220703125,-0.004692756372826392,-0.03959030920610325,0.34357810078523315
498,19.960058093000043,bno085,0.203125,0.234375,9.91796875,0.0,0.0,0.0,0.01507568359375,-0.00335693359375,0.48358154296875,0.8751220703125,-0.004692756372826392,-0.03959030920610325,0.34357810078523315
499,20.0000600569997,bno085,0.203125,0.234375,9.91796875,0.0,0.0,0.0,0.01507568359375,-0.00335693359375,0.48358154296875,0.8751220703125,-0.004692756372826392,-0.03959030920610325,0.34357810078523315
500,20.040058872999907,bno085,0.203125,0.234375,9.95703125,0.0,0.0,0.0,0.01507568359375,-0.00335693359375,0.48358154296875,0.8751220703125,-0.004692756372826392,-0.03959030920610325,0.34357810078523315
501,20.08005848499988,bno085,0.203125,0.234375,9.95703125,0.0,0.0,0.0,0.01507568359375,-0.00335693359375,0.48358154296875,0.8751220703125,-0.004692756372826392,-0.03959030920610325,0.34357810078523315
502,20.120056874000056,bno085,0.203125,0.234375,9.91796875,0.0,0.0,0.0,0.01507568359375,-0.00335693359375,0.48358154296875,0.8751220703125,-0.004692756372826392,-0.03959030920610325,0.34357810078523315
503,20.160058375000062,bno085,0.203125,0.234375,9.91796875,0.0,0.0,0.0,0.01507568359375,-0.00335693359375,0.48358154296875,0.8751220703125,-0.004692756372826392,-0.03959030920610325,0.34357810078523315
504,20.200057227999878,bno085,0.203125,0.234375,9.91796875,0.0,0.0,0.0,0.01507568359375,-0.00335693359375,0.48358154296875,0.8751220703125,-0.004692756372826392,-0.03959030920610325,0.34357810078523315
505,20.240056303000074,bno085,0.203125,0.1953125,9.9140625,0.0,0.0,0.0,0.01513671875,-0.0032958984375,0.48358154296875,0.8751220703125,0.004812654657166236,-0.03685113153746666,0.3435189368791831
506,20.28005819200007,bno085,0.203125,0.234375,9.91796875,0.0,0.0,0.0,0.01513671875,-0.0032958984375,0.48358154296875,0.8751220703125,0.004812654657166236,-0.03685113153746666,0.3435189368791831
507,20.320058766999864,bno085,0.203125,0.234375,9.95703125,0.0,0.0,0.0,0.01513671875,-0.0032958984375,0.48358154296875,0.8751220703125,0.004812654657166236,-0.03685113153746666,0.3435189368791831
508,20.360057526999753,bno085,0.203125,0.234375,9.91796875,0.0,0.0,0.0,0.01513671875,-0.0032958984375,0.48358154296875,0.8751220703125,0.004812654657166236,-0.03685113153746666,0.3435189368791831
509,20.400056824999865,bno085,0.203125,0.1953125,9.953125,0.0,0.0,0.0,0.01513671875,-0.0032958984375,0.48358154296875,0.8751220703125,0.004812654657166236,-0.03685113153746666,0.3435189368791831
510,20.44005752899966,bno085,0.203125,0.1953125,9.9140625,0.0,0.0,0.0,0.01513671875,-0.0032958984375,0.48358154296875,0.8751220703125,0.004812654657166236,-0.03685113153746666,0.3435189368791831
511,20.480059029999666,bno085,0.203125,0.234375,9.95703125,0.0,0.0,0.0,0.01513671875,-0.0032958984375,0.48358154296875,0.8751220703125,0.004812654657166236,-0.03685113153746666,0.3435189368791831
512,20.520058289999724,bno085,0.203125,0.1953125,9.9140625,0.0,0.0,0.0,0.01507568359375,-0.00335693359375,0.48358154296875,0.8751220703125,-0.004692756372826392,-0.03959030920610325,0.34357810078523315
513,20.560058179999942,bno085,0.203125,0.234375,9.95703125,0.0,0.0,0.0,0.01507568359375,-0.00335693359375,0.48358154296875,0.8751220703125,-0.004692756372826392,-0.03959030920610325,0.34357810078523315
514,20.600057513999673,bno085,0.203125,0.234375,9.95703125,0.0,0.0,0.0,0.01507568359375,-0.00335693359375,0.48358154296875,0.8751220703125,-0.004692756372826392,-0.03959030920610325,0.34357810078523315
515,20.640061866999986,bno085,0.203125,0.234375,9.95703125,0.0,0.0,0.0,0.01507568359375,-0.00335693359375,0.48358154296875,0.8751220703125,-0.004692756372826392,-0.03959030920610325,0.34357810078523315
516,20.680059163999886,bno085,0.203125,0.234375,9.95703125,0.001953125,0.0,-0.001953125,0.01507568359375,-0.00335693359375,0.48358154296875,0.8751220703125,-0.004692756372826392,-0.03959030920610325,0.34357810078523315
517,20.72005973899968,bno085,0.203125,0.234375,9.95703125,-0.00390625,-0.001953125,0.001953125,0.01507568359375,-0.00335693359375,0.48358154296875,0.87518310546875,-0.004618280469350196,-0.03951537571631419,0.34537748217804526
518,20.76005714699977,bno085,0.203125,0.234375,9.95703125,-0.00390625,-0.001953125,0.001953125,0.0150146484375,-0.00335693359375,0.483642578125,0.8751220703125,-0.010699127095496579,-0.03607403151367231,0.35249646310180194
519,20.80005735099985,bno085,0.203125,0.1953125,9.953125,0.0,0.001953125,0.001953125,0.01507568359375,-0.00335693359375,0.483642578125,0.8751220703125,-0.004575361186407683,-0.03945579325945247,0.3525625200974893
520,20.840059925999867,bno085,0.203125,0.234375,9.95703125,0.0,0.0,-0.001953125,0.01507568359375,-0.00335693359375,0.483642578125,0.8751220703125,-0.004575361186407683,-0.03945579325945247,0.3525625200974893
521,20.880058241999905,bno085,0.203125,0.234375,9.91796875,0.001953125,-0.001953125,0.0,0.01507568359375,-0.00335693359375,0.483642578125,0.8751220703125,-0.004575361186407683,-0.03945579325945247,0.3525625200974893
522,20.920058964999953,bno085,0.203125,0.234375,9.91796875,0.0,0.001953125,0.0,0.0150146484375,-0.00335693359375,0.483642578125,0.8751220703125,-0.010699127095496579,-0.03607403151367231,0.35249646310180194
523,20.960058781000043,bno085,0.203125,0.234375,9.95703125,0.0,0.001953125,0.0,0.0150146484375,-0.00335693359375,0.483642578125,0.8751220703125,-0.010699127095496579,-0.03607403151367231,0.35249646310180194
524,21.000057429999742,bno085,0.203125,0.234375,9.95703125,-0.00390625,-0.001953125,0.0,0.0150146484375,-0.00335693359375,0.483642578125,0.8751220703125,-0.010699127095496579,-0.03607403151367231,0.35249646310180194
525,21.040057152999907,bno085,0.203125,0.234375,9.95703125,0.001953125,0.0,0.001953125,0.0150146484375,-0.00335693359375,0.483642578125,0.8751220703125,-0.010699127095496579,-0.03607403151367231,0.35249646310180194
526,21.080057708999902,bno085,0.203125,0.1953125,9.9140625,0.001953125,0.001953125,0.001953125,0.0150146484375,-0.00335693359375,0.483642578125,0.8751220703125,-0.010699127095496579,-0.03607403151367231,0.35249646310180194
527,21.120058746999803,bno085,0.203125,0.234375,9.91796875,0.001953125,0.0,-0.001953125,0.01507568359375,-0.00335693359375,0.483642578125,0.8751220703125,-0.004575361186407683,-0.03945579325945247,0.3525625200974893
528,21.160057099999904,bno085,0.203125,0.234375,9.91796875,0.001953125,0.0,-0.001953125,0.01507568359375,-0.0032958984375,0.483642578125,0.8751220703125,-0.0011933185106823387,-0.03333529312275812,0.35243707742155794
529,21.20005752599991,bno085,0.203125,0.234375,9.91796875,0.001953125,0.0,0.0,0.01513671875,-0.0032958984375,0.483642578125,0.8751220703125,0.00493047625563013,-0.03671704234601092,0.35250336140826166
530,21.240057434999926,bno085,0.203125,0.234375,9.91796875,0.0,0.001953125,0.0,0.01513671875,-0.00323486328125,0.483642578125,0.8751220703125,0.008312522141733421,-0.030596522167404154,0.35237886860843626
531,21.280056583999794,bno085,0.203125,0.234375,9.91796875,0.001953125,0.0,-0.001953125,0.01513671875,-0.00323486328125,0.483642578125,0.8751220703125,0.008312522141733421,-0.030596522167404154,0.35237886860843626
532,21.320057714000086,bno085,0.203125,0.234375,9.91796875,0.00390625,0.0,0.001953125,0.01513671875,-0.0032958984375,0.483642578125,0.8751220703125,0.00493047625563013,-0.03671704234601092,0.35250336140826166
533,21.360056771000018,bno085,0.203125,0.234375,9.95703125,0.00390625,0.0,0.001953125,0.01519775390625,-0.0032958984375,0.483642578125,0.8751220703125,0.011054296387463108,-0.04009879169112431,0.3525696452853701
534,21.400056752999717,bno085,0.203125,0.234375,9.95703125,-0.009765625,0.0,0.001953125,0.01513671875,-0.00335693359375,0.483642578125,0.8751220703125,0.0015484299813779128,-0.04283755513671834,0.35262857698478955
535,21.440057216999776,bno085,0.203125,0.234375,9.95703125,0.001953125,0.0,0.0,0.01513671875,-0.00335693359375,0.483642578125,0.8751220703125,0.0015484299813779128,-0.04283755513671834,0.35262857698478955
536,21.480058439999993,bno085,0.203125,0.234375,9.95703125,0.001953125,0.0,0.0,0.01513671875,-0.00335693359375,0.483642578125,0.8751220703125,0.0015484299813779128,-0.04283755513671834,0.35262857698478955
537,21.520057088999692,bno085,0.203125,0.234375,9.91796875,-0.00390625,0.0,0.0,0.01519775390625,-0.0032958984375,0.483642578125,0.8751220703125,0.011054296387463108,-0.04009879169112431,0.3525696452853701
538,21.560057442000016,bno085,0.203125,0.234375,9.91796875,-0.001953125,-0.001953125,-0.001953125,0.01513671875,-0.0032958984375,0.483642578125,0.8751220703125,0.00493047625563013,-0.03671704234601092,0.35250336140826166
539,21.60005801699981,bno085,0.203125,0.234375,9.95703125,-0.001953125,-0.001953125,-0.001953125,0.01513671875,-0.0032958984375,0.483642578125,0.8751220703125,0.00493047625563013,-0.03671704234601092,0.35250336140826166
540,21.6400618319999,bno085,0.203125,0.234375,9.95703125,0.0,0.0,0.0,0.01519775390625,-0.0032958984375,0.483642578125,0.8751220703125,0.011054296387463108,-0.04009879169112431,0.3525696452853701
541,21.680058480999833,bno085,0.203125,0.1953125,9.9140625,0.0,0.0,0.0,0.01519775390625,-0.0032958984375,0.483642578125,0.8751220703125,0.011054296387463108,-0.04009879169112431,0.3525696452853701
542,21.72005798200007,bno085,0.203125,0.234375,9.91796875,0.005859375,0.0,0.00390625,0.01519775390625,-0.0032958984375,0.483642578125,0.8751220703125,0.011054296387463108,-0.04009879169112431,0.3525696452853701
543,21.76005727899974,bno085,0.203125,0.234375,9.95703125,0.005859375,0.0,0.00390625,0.0152587890625,-0.0032958984375,0.483642578125,0.8751220703125,0.017178142018536218,-0.043480541169741774,0.3526359290528833
544,21.800056725000104,bno085,0.203125,0.234375,9.95703125,-0.001953125,0.0,0.0,0.01519775390625,-0.0032958984375,0.4837646484375,0.87506103515625,0.011214696961889035,-0.03990684057030552,0.36874044213889157
545,21.840056725000068,bno085,0.203125,0.234375,9.95703125,0.005859375,0.0,-0.001953125,0.0152587890625,-0.00323486328125,0.48382568359375,0.875,0.020763609486510806,-0.03711191430158927,0.3758694548448978
546,21.88005661499983,bno085,0.203125,0.234375,9.95703125,0.0,0.0,0.0,0.0152587890625,-0.00323486328125,0.48382568359375,0.875,0.020763609486510806,-0.03711191430158927,0.3758694548448978
547,21.92005637500006,bno085,0.203125,0.1953125,9.953125,0.0,0.0,0.0,0.01519775390625,-0.00323486328125,0.48382568359375,0.875,0.014640613539294654,-0.03372889736342995,0.37580293257993724
548,21.960057671999948,bno085,0.203125,0.234375,9.95703125,0.0,0.0,0.0,0.01519775390625,-0.00323486328125,0.48382568359375,0.875,0.014640613539294654,-0.03372889736342995,0.37580293257993724
549,22.000057061999996,bno085,0.203125,0.234375,9.91796875,0.001953125,0.0,0.00390625,0.01519775390625,-0.0032958984375,0.48388671875,0.875,0.011375212498011269,-0.03971490791220101,0.38491305220202626
550,22.04005641499998,bno085,0.203125,0.234375,9.91796875,-0.005859375,0.0,0.0,0.01507568359375,-0.0032958984375,0.48388671875,0.875,-0.000870695491696118,-0.03294799594015227,0.3847804599818025
551,22.080056452999997,bno085,0.203125,0.234375,9.95703125,0.00390625,0.001953125,0.0,0.01507568359375,-0.0032958984375,0.48388671875,0.875,-0.000870695491696118,-0.03294799594015227,0.3847804599818025
552,22.120056175999707,bno085,0.203125,0.234375,9.95703125,0.001953125,0.001953125,0.001953125,0.0150146484375,-0.00335693359375,0.48388671875,0.875,-0.0103773573001433,-0.035684174165317564,0.3848398081639198
553,22.16006054699983,bno085,0.203125,0.234375,9.95703125,0.001953125,0.001953125,0.001953125,0.01507568359375,-0.00335693359375,0.48388671875,0.875,-0.0042544448470547384,-0.03906764261286234,0.384905877544292
554,22.20005726999989,bno085,0.203125,0.234375,9.95703125,0.001953125,0.0,0.001953125,0.01507568359375,-0.0032958984375,0.48388671875,0.875,-0.000870695491696118,-0.03294799594015227,0.3847804599818025
555,22.240057419000095,bno085,0.203125,0.234375,9.91796875,-0.005859375,0.0,-0.001953125,0.0150146484375,-0.00335693359375,0.48388671875,0.875,-0.0103773573001433,-0.035684174165317564,0.3848398081639198
556,22.280057567999847,bno085,0.203125,0.234375,9.95703125,-0.00390625,-0.001953125,0.0,0.0150146484375,-0.00335693359375,0.48388671875,0.875,-0.0103773573001433,-0.035684174165317564,0.3848398081639198
557,22.320056790999843,bno085,0.203125,0.234375,9.91796875,-0.001953125,0.0,0.0,0.0150146484375,-0.00341796875,0.48388671875,0.875,-0.013761103630951439,-0.04180380080862503,0.3849661756455911
558,22.360056791999796,bno085,0.203125,0.234375,9.95703125,-0.001953125,0.0,0.0,0.0150146484375,-0.00341796875,0.48394775390625,0.87493896484375,-0.013718029122401913,-0.0417434253462619,0.39215396820704285
559,22.40005734899978,bno085,0.203125,0.234375,9.95703125,0.00390625,0.0,0.0,0.01507568359375,-0.00335693359375,0.48394775390625,0.87493896484375,-0.004211370144696137,-0.03900812048003137,0.39209368353810353
560,22.44005697900002,bno085,0.203125,0.234375,9.91796875,0.0,0.0,0.0,0.01507568359375,-0.00335693359375,0.48394775390625,0.87493896484375,-0.004211370144696137,-0.03900812048003137,0.39209368353810353
561,22.480058091000046,bno085,0.203125,0.234375,9.95703125,0.0,0.0,0.0,0.01507568359375,-0.00335693359375,0.48394775390625,0.87493896484375,-0.004211370144696137,-0.03900812048003137,0.39209368353810353
562,22.520057128999724,bno085,0.203125,0.234375,9.95703125,0.0,0.0,0.0,0.01513671875,-0.00335693359375,0.48394775390625,0.87493896484375,0.0019111410090621066,-0.042392015822475634,0.39215975828686395
563,22.560057056000005,bno085,0.203125,0.234375,9.91796875,0.0,0.0,0.0,0.01513671875,-0.00335693359375,0.4840087890625,0.87493896484375,0.0020286967479185665,-0.04225791691109603,0.4011463517169975
564,22.600056760999905,bno085,0.203125,0.1953125,9.9140625,0.0,0.0,0.0,0.01513671875,-0.00335693359375,0.4840087890625,0.87493896484375,0.0020286967479185665,-0.04225791691109603,0.4011463517169975
565,22.640061020999838,bno085,0.203125,0.234375,9.95703125,0.0,0.0,0.0,0.01513671875,-0.00335693359375,0.4840087890625,0.87493896484375,0.0020286967479185665,-0.04225791691109603,0.4011463517169975
566,22.680056651000086,bno085,0.203125,0.234375,9.95703125,0.0,0.0,0.0,0.01513671875,-0.00335693359375,0.4840087890625,0.87493896484375,0.0020286967479185665,-0.04225791691109603,0.4011463517169975
567,22.72005844799969,bno085,0.203125,0.234375,9.91796875,0.0,0.0,0.0,0.01513671875,-0.00335693359375,0.4840087890625,0.87493896484375,0.0020286967479185665,-0.04225791691109603,0.4011463517169975
568,22.760057745999802,bno085,0.203125,0.234375,9.95703125,0.0,0.0,0.0,0.01513671875,-0.0032958984375,0.4840087890625,0.87493896484375,0.005413303045885654,-0.03613868432021311,0.40102117351352934
569,22.80005739499984,bno085,0.203125,0.234375,9.95703125,0.0,0.0,0.0,0.01513671875,-0.0032958984375,0.4840087890625,0.87493896484375,0.005413303045885654,-0.03613868432021311,0.40102117351352934
570,22.8400566549999,bno085,0.203125,0.1953125,9.953125,0.0,0.0,0.0,0.01519775390625,-0.0032958984375,0.4840087890625,0.87493896484375,0.01153584299582448,-0.03952299371681902,0.4010874756309733
571,22.880056951999904,bno085,0.203125,0.234375,9.91796875,0.0,0.0,0.0,0.01519775390625,-0.0032958984375,0.4840087890625,0.87493896484375,0.01153584299582448,-0.03952299371681902,0.4010874756309733
572,22.920057100999657,bno085,0.203125,0.234375,9.95703125,0.0,0.0,0.0,0.01513671875,-0.0032958984375,0.4840087890625,0.87493896484375,0.005413303045885654,-0.03613868432021311,0.40102117351352934
573,22.960056916999747,bno085,0.203125,0.234375,9.91796875,0.0,0.0,0.0,0.01513671875,-0.0032958984375,0.4840087890625,0.87493896484375,0.005413303045885654,-0.03613868432021311,0.40102117351352934
574,23.000056491999658,bno085,0.203125,0.1953125,9.9140625,0.0,0.0,0.0,0.01513671875,-0.00335693359375,0.4840087890625,0.87493896484375,0.0020286967479185665,-0.04225791691109603,0.4011463517169975
575,23.040057899999738,bno085,0.203125,0.234375,9.95703125,0.0,0.0,0.0,0.01513671875,-0.00335693359375,0.4840087890625,0.87493896484375,0.0020286967479185665,-0.04225791691109603,0.4011463517169975
576,23.080057381999723,bno085,0.203125,0.234375,9.95703125,0.0,0.0,0.0,0.01507568359375,-0.00335693359375,0.4840087890625,0.87493896484375,-0.004093814234788403,-0.03887359498366903,0.4010802762797297
577,23.120057882999845,bno085,0.203125,0.234375,9.95703125,0.005859375,0.0,0.001953125,0.01507568359375,-0.00335693359375,0.4840087890625,0.87493896484375,-0.004093814234788403,-0.03887359498366903,0.4010802762797297
578,23.160057309999956,bno085,0.203125,0.234375,9.95703125,0.005859375,0.0,0.001953125,0.01513671875,-0.00335693359375,0.4840087890625,0.87493896484375,0.0020286967479185665,-0.04225791691109603,0.4011463517169975
579,23.200056625999878,bno085,0.203125,0.234375,9.95703125,-0.00390625,0.0,-0.001953125,0.01513671875,-0.0032958984375,0.4840087890625,0.87493896484375,0.005413303045885654,-0.03613868432021311,0.40102117351352934
580,23.240056645000095,bno085,0.203125,0.1953125,9.953125,0.00390625,0.0,0.0,0.01513671875,-0.0032958984375,0.4840087890625,0.87493896484375,0.005413303045885654,-0.03613868432021311,0.40102117351352934
581,23.280057275999752,bno085,0.203125,0.234375,9.95703125,0.0,0.0,0.0,0.01513671875,-0.0032958984375,0.4840087890625,0.87493896484375,0.005413303045885654,-0.03613868432021311,0.40102117351352934
582,23.32005653599981,bno085,0.203125,0.234375,9.91796875,0.001953125,0.0,0.0,0.01513671875,-0.0032958984375,0.4840087890625,0.87493896484375,0.005413303045885654,-0.03613868432021311,0.40102117351352934
583,23.360057073999997,bno085,0.203125,0.234375,9.91796875,-0.00390625,0.001953125,0.0,0.01519775390625,-0.00335693359375,0.4840087890625,0.87493896484375,0.008151233122084258,-0.04564223897923479,0.4012124270456038
584,23.400056648999907,bno085,0.203125,0.1953125,9.953125,-0.00390625,0.001953125,0.0,0.01513671875,-0.00335693359375,0.4840087890625,0.87493896484375,0.0020286967479185665,-0.04225791691109603,0.4011463517169975
585,23.44005690899985,bno085,0.2421875,0.234375,9.91796875,0.0,0.0,0.0,0.01519775390625,-0.0032958984375,0.48394775390625,0.87493896484375,0.011417860847172116,-0.03965666587316226,0.39210087705742985
586,23.480058095000004,bno085,0.203125,0.234375,9.91796875,0.001953125,0.0,0.0,0.01519775390625,-0.0032958984375,0.48394775390625,0.87493896484375,0.011417860847172116,-0.03965666587316226,0.39210087705742985
587,23.520057132999682,bno085,0.203125,0.234375,9.91796875,-0.00390625,0.0,0.001953125,0.01513671875,-0.0032958984375,0.48394775390625,0.87493896484375,0.005295320724035692,-0.036272783061262685,0.39203457556553406
588,23.5600570229999,bno085,0.203125,0.1953125,9.953125,-0.00390625,0.0,0.001953125,0.01513671875,-0.00335693359375,0.484130859375,0.87481689453125,0.0021141484573154244,-0.04213978649952212,0.4155247453291296
