sample,time_s,sensor,accel_x_mps2,accel_y_mps2,accel_z_mps2,gyro_x_radps,gyro_y_radps,gyro_z_radps,quat_i,quat_j,quat_k,quat_real,roll_deg,pitch_deg,yaw_deg
0,0.04005870299988601,bno085,-0.1015625,0.0078125,9.7578125,-0.001953125,-0.001953125,0.001953125,-0.001220703125,0.0048828125,0.3040771484375,0.95263671875,-1.6884989751113662e-06,-4.2212474377784144e-07,6.778385693990333e-09
1,0.08006055300029402,bno085,-0.1015625,0.0078125,9.7578125,0.0078125,0.001953125,0.0,-0.001220703125,0.00506591796875,0.31256103515625,0.94989013671875,0.0014262684958217798,0.02033016755439116,1.022141847566649
2,0.12006390400028977,bno085,-0.1015625,0.0078125,9.80078125,-0.001953125,0.0,0.0,-0.001220703125,0.00506591796875,0.31256103515625,0.94989013671875,0.0014262684958217798,0.02033016755439116,1.022141847566649
3,0.16005975500002023,bno085,-0.1015625,0.0078125,9.7578125,0.001953125,0.0,0.0,-0.00115966796875,0.005126953125,0.30078125,0.95367431640625,0.017076972762891697,0.0244571597001229,-0.39631592752398465
4,0.2000578460001634,bno085,-0.1015625,0.0078125,9.7578125,0.001953125,0.0,0.0,-0.0010986328125,0.005126953125,0.28729248046875,0.95782470703125,0.03156324696831282,0.022394204896403487,-2.013451909564581
5,0.24005854899996848,bno085,-0.1015625,0.0078125,9.7578125,0.001953125,0.0,0.0,-0.00103759765625,0.005126953125,0.27166748046875,0.96240234375,0.047299954358907895,0.020975288387833513,-3.877445611338306
6,0.28005727000027036,bno085,-0.1015625,0.0078125,9.7578125,0.001953125,0.001953125,0.001953125,-0.0009765625,0.005126953125,0.25909423828125,0.9658203125,0.06131328326319301,0.019934800007509277,-5.372904359316797
7,0.3200584539999909,bno085,-0.1015625,0.0078125,9.7578125,-0.001953125,0.001953125,0.0,-0.0009765625,0.005126953125,0.25909423828125,0.9658203125,0.06131328326319301,0.019934800007509277,-5.372904359316797
8,0.36005747099989094,bno085,-0.1015625,0.0078125,9.7578125,0.0078125,-0.00390625,0.001953125,-0.00079345703125,0.00518798828125,0.2205810546875,0.975341796875,0.10526903047659411,0.026585941686590314,-9.918881434984568
9,0.400057303000267,bno085,-0.1015625,0.0078125,9.80078125,0.0078125,-0.00390625,0.001953125,-0.000732421875,0.005126953125,0.2203369140625,0.97540283203125,0.1106852305108219,0.01826720524438271,-9.947432308931518
10,0.44005783900001916,bno085,-0.1015625,0.0078125,9.80078125,-0.001953125,0.0,0.001953125,-0.000732421875,0.005126953125,0.22027587890625,0.97540283203125,0.11072409436132499,0.01827182614894771,-9.954916662138936
11,0.48005754199994044,bno085,-0.1015625,0.0078125,9.7578125,-0.001953125,0.0,0.0,-0.00079345703125,0.005126953125,0.2203369140625,0.97540283203125,0.10386312295545598,0.019808378566066143,-9.947462988328354
12,0.5200578180001685,bno085,-0.1015625,0.0078125,9.7578125,-0.001953125,-0.001953125,0.0,-0.00079345703125,0.005126953125,0.2203369140625,0.97540283203125,0.10386312295545598,0.019808378566066143,-9.947462988328354
13,0.5600571690001743,bno085,-0.1015625,0.0078125,9.7578125,0.00390625,0.0,0.0,-0.00079345703125,0.00506591796875,0.2203369140625,0.97540283203125,0.10232218103568815,0.012986005912558305,-9.947496135324013
14,0.600057445999937,bno085,-0.1015625,0.046875,9.796875,0.00390625,0.0,0.0,-0.000732421875,0.00506591796875,0.2203369140625,0.97540283203125,0.10914428472646111,0.011444834901414538,-9.947465841360865
15,0.6400571670001227,bno085,-0.1015625,0.0078125,9.7578125,0.001953125,-0.001953125,0.0,-0.000732421875,0.005126953125,0.2203369140625,0.97540283203125,0.1106852305108219,0.01826720524438271,-9.947432308931518
16,0.6800582030000442,bno085,-0.1015625,0.0078125,9.80078125,0.001953125,0.0,0.0,-0.000732421875,0.005126953125,0.2203369140625,0.97540283203125,0.1106852305108219,0.01826720524438271,-9.947432308931518
17,0.7200647019999451,bno085,-0.0625,0.0078125,9.7578125,0.00390625,-0.001953125,0.0,-0.000732421875,0.005126953125,0.2203369140625,0.97540283203125,0.1106852305108219,0.01826720524438271,-9.947432308931518
18,0.7600585519999186,bno085,-0.1015625,0.0078125,9.7578125,0.001953125,0.001953125,0.0,-0.000732421875,0.005126953125,0.2203369140625,0.97540283203125,0.1106852305108219,0.01826720524438271,-9.947432308931518
19,0.8000580880002417,bno085,-0.1015625,0.0078125,9.7578125,0.001953125,0.001953125,0.0,-0.000732421875,0.005126953125,0.2203369140625,0.97540283203125,0.1106852305108219,0.01826720524438271,-9.947432308931518
20,0.8400573829999303,bno085,-0.1015625,0.0078125,9.80078125,-0.005859375,0.001953125,0.001953125,-0.000732421875,0.005126953125,0.2203369140625,0.97540283203125,0.1106852305108219,0.01826720524438271,-9.947432308931518
21,0.8800575119998939,bno085,-0.1015625,0.0078125,9.80078125,0.00390625,-0.005859375,0.0,-0.0006103515625,0.00506591796875,0.22039794921875,0.97540283203125,0.12274918805641089,0.00835702558954728,-9.939920573064779
22,0.920057399000143,bno085,-0.1015625,0.0078125,9.80078125,0.00390625,-0.001953125,0.001953125,-0.0006103515625,0.00506591796875,0.22039794921875,0.97540283203125,0.12274918805641089,0.00835702558954728,-9.939920573064779
23,0.9600561950001065,bno085,-0.1015625,0.0078125,9.7578125,0.0,-0.00390625,0.0,-0.00054931640625,0.00506591796875,0.22039794921875,0.97540283203125,0.12957128316178648,0.006815427736656119,-9.939890279625233
24,1.0000580820001232,bno085,-0.1015625,0.0078125,9.7578125,0.0,-0.00390625,0.0,-0.00048828125,0.00506591796875,0.22039794921875,0.97540283203125,0.13639337563333606,0.005273829888664375,-9.939859986185489
25,1.0400582669999494,bno085,-0.1015625,0.0078125,9.7578125,-0.001953125,0.0,0.0,-0.00054931640625,0.00506591796875,0.22039794921875,0.97540283203125,0.12957128316178648,0.006815427736656119,-9.939890279625233
26,1.0800582659999236,bno085,-0.1015625,0.0078125,9.80078125,-0.001953125,0.001953125,0.0,-0.00054931640625,0.00506591796875,0.22039794921875,0.97540283203125,0.12957128316178648,0.006815427736656119,-9.939890279625233
27,1.1200634500000888,bno085,-0.1015625,0.0078125,9.80078125,0.001953125,0.0,0.00390625,-0.00054931640625,0.00506591796875,0.22039794921875,0.97540283203125,0.12957128316178648,0.006815427736656119,-9.939890279625233
28,1.1600583750000624,bno085,-0.1015625,0.0078125,9.80078125,0.001953125,-0.001953125,0.0,-0.0006103515625,0.00506591796875,0.22039794921875,0.97540283203125,0.12274918805641089,0.00835702558954728,-9.939920573064779
29,1.2000625220002803,bno085,-0.1015625,0.0078125,9.80078125,0.001953125,-0.001953125,0.0,-0.0006103515625,0.00506591796875,0.22039794921875,0.97540283203125,0.12274918805641089,0.00835702558954728,-9.939920573064779
30,1.2400592250000955,bno085,-0.1015625,0.0078125,9.7578125,0.001953125,0.001953125,0.0,-0.00054931640625,0.00506591796875,0.22039794921875,0.97540283203125,0.12957128316178648,0.006815427736656119,-9.939890279625233
31,1.2800585380000484,bno085,-0.1015625,0.0078125,9.80078125,-0.001953125,0.0,-0.001953125,-0.00054931640625,0.0050048828125,0.2203369140625,0.97540283203125,0.12806962315772508,-1.0341221908724024e-06,-9.947409281197764
32,1.3200576670001283,bno085,-0.0625,0.046875,9.796875,0.001953125,0.0,0.00390625,-0.00054931640625,0.0050048828125,0.2203369140625,0.97540283203125,0.12806962315772508,-1.0341221908724024e-06,-9.947409281197764
33,1.3600548510003136,bno085,-0.1015625,0.0078125,9.7578125,0.005859375,0.0,0.0,-0.00054931640625,0.0050048828125,0.22039794921875,0.97540283203125,0.12802990102593603,-6.928291033299525e-06,-9.939924600869025
34,1.400055016999886,bno085,-0.1015625,0.0078125,9.7578125,0.005859375,0.0,0.0,-0.00042724609375,0.0050048828125,0.22039794921875,0.97540283203125,0.14167407608818397,-0.003090119450566116,-9.939864784804707
35,1.4400547750001351,bno085,-0.1015625,0.0078125,9.80078125,0.00390625,-0.001953125,0.0,-0.0003662109375,0.0050048828125,0.22039794921875,0.97540283203125,0.14849615997848525,-0.004631715033167733,-9.939834876771961
36,1.4800551080002151,bno085,-0.0625,0.046875,9.796875,-0.001953125,0.001953125,0.001953125,-0.0003662109375,0.00506591796875,0.22039794921875,0.97540283203125,0.15003755312104816,0.0021906342029258175,-9.939799399305395
37,1.5200548470002104,bno085,-0.1015625,0.0078125,9.80078125,0.001953125,0.001953125,0.0,-0.0003662109375,0.00506591796875,0.22039794921875,0.97540283203125,0.15003755312104816,0.0021906342029258175,-9.939799399305395
38,1.5600551239999731,bno085,-0.1015625,0.0078125,9.7578125,0.001953125,0.0,0.00390625,-0.0003662109375,0.00506591796875,0.22039794921875,0.97540283203125,0.15003755312104816,0.0021906342029258175,-9.939799399305395
39,1.6000550120002117,bno085,-0.1015625,0.0078125,9.80078125,0.001953125,0.0,0.00390625,-0.0003662109375,0.0050048828125,0.220458984375,0.97540283203125,0.14845643327706184,-0.004638882483761362,-9.93234986999131
40,1.640055326000038,bno085,-0.1015625,0.0078125,9.80078125,0.001953125,-0.001953125,0.001953125,-0.0003662109375,0.0050048828125,0.220458984375,0.97540283203125,0.14845643327706184,-0.004638882483761362,-9.93234986999131
41,1.6800548989999697,bno085,-0.1015625,0.0078125,9.80078125,0.0,0.0,0.0,-0.0003662109375,0.0050048828125,0.220458984375,0.97540283203125,0.14845643327706184,-0.004638882483761362,-9.93234986999131
42,1.7200548790001449,bno085,-0.1015625,0.0078125,9.7578125,0.0,-0.001953125,-0.001953125,-0.0003662109375,0.0050048828125,0.220458984375,0.97540283203125,0.14845643327706184,-0.004638882483761362,-9.93234986999131
43,1.760056323000299,bno085,-0.1015625,0.0078125,9.80078125,0.001953125,0.0,0.0,-0.00042724609375,0.00494384765625,0.220458984375,0.97540283203125,0.14009253514278217,-0.00991920426090925,-9.932414501849935
44,1.8000552480002625,bno085,-0.1015625,0.0078125,9.80078125,0.001953125,0.0,0.0,-0.00042724609375,0.00494384765625,0.220458984375,0.97540283203125,0.14009253514278217,-0.00991920426090925,-9.932414501849935
45,1.8400550430001203,bno085,-0.0625,0.0078125,9.7578125,-0.00390625,0.0,0.0,-0.00042724609375,0.00494384765625,0.220458984375,0.97540283203125,0.14009253514278217,-0.00991920426090925,-9.932414501849935
46,1.880055079000158,bno085,-0.0625,0.0078125,9.7578125,0.001953125,0.0,0.0,-0.00042724609375,0.00494384765625,0.220458984375,0.97540283203125,0.14009253514278217,-0.00991920426090925,-9.932414501849935
47,1.9200548369999524,bno085,-0.1015625,0.046875,9.76171875,0.0,0.0,-0.001953125,-0.00048828125,0.0048828125,0.22039794921875,0.97540283203125,0.13176922408813593,-0.01519320962526679,-9.939963004840772
48,1.9600551700000324,bno085,-0.1015625,0.0078125,9.7578125,0.001953125,-0.001953125,0.0,-0.00048828125,0.0048828125,0.22039794921875,0.97540283203125,0.13176922408813593,-0.01519320962526679,-9.939963004840772
49,2.0000543360001757,bno085,-0.1015625,0.0078125,9.80078125,0.001953125,-0.001953125,0.0,-0.00042724609375,0.00482177734375,0.22039794921875,0.97540283203125,0.13704991988487059,-0.023557130734649923,-9.939967858385174
50,2.0400549650003086,bno085,-0.0625,0.0078125,9.7578125,-0.001953125,0.001953125,-0.001953125,-0.00042724609375,0.00482177734375,0.2203369140625,0.97540283203125,0.13709092262284586,-0.023550382858553265,-9.947452539914984
51,2.0800555750001877,bno085,-0.1015625,0.0078125,9.80078125,-0.001953125,0.0,0.0,-0.00042724609375,0.00482177734375,0.2203369140625,0.97540283203125,0.13709092262284586,-0.023550382858553265,-9.947452539914984
52,2.1200604260002365,bno085,-0.1015625,0.0078125,9.7578125,-0.001953125,-0.001953125,-0.001953125,-0.00042724609375,0.00482177734375,0.2203369140625,0.97540283203125,0.13709092262284586,-0.023550382858553265,-9.947452539914984
53,2.1600559250000515,bno085,-0.1015625,0.0078125,9.7578125,0.00390625,0.0,-0.001953125,-0.00042724609375,0.0047607421875,0.2203369140625,0.97540283203125,0.1355499679523217,-0.03037270588100759,-9.94748616451307
54,2.2000550349998775,bno085,-0.1015625,0.0078125,9.80078125,0.005859375,-0.001953125,0.001953125,-0.00054931640625,0.00482177734375,0.2203369140625,0.97540283203125,0.12344676850409587,-0.020468058762945354,-9.947510044383266
55,2.2400554230002854,bno085,-0.1015625,0.0078125,9.80078125,0.005859375,-0.001953125,0.001953125,-0.00048828125,0.00482177734375,0.2203369140625,0.97540283203125,0.13026884678298456,-0.022009220802800367,-9.94748129214959
56,2.280054977999953,bno085,-0.1015625,0.0078125,9.80078125,0.00390625,0.00390625,0.001953125,-0.00054931640625,0.00482177734375,0.2203369140625,0.97540283203125,0.12344676850409587,-0.020468058762945354,-9.947510044383266
57,2.320054903000255,bno085,-0.1015625,0.0078125,9.80078125,0.00390625,0.0,0.001953125,-0.00048828125,0.0047607421875,0.2203369140625,0.97540283203125,0.12872789541447593,-0.028831546001909302,-9.947514531315559
58,2.3600554210001974,bno085,-0.1015625,0.0078125,9.80078125,0.001953125,0.0,0.0,-0.00048828125,0.0047607421875,0.2203369140625,0.97540283203125,0.12872789541447593,-0.028831546001909302,-9.947514531315559
59,2.400054790000013,bno085,-0.1015625,0.0078125,9.80078125,0.001953125,0.0,0.0,-0.00048828125,0.0047607421875,0.2203369140625,0.97540283203125,0.12872789541447593,-0.028831546001909302,-9.947514531315559
60,2.4400550670002303,bno085,-0.1015625,0.0078125,9.7578125,-0.001953125,-0.001953125,0.0,-0.00048828125,0.0047607421875,0.2203369140625,0.97540283203125,0.12872789541447593,-0.028831546001909302,-9.947514531315559
61,2.4800547519998872,bno085,-0.1015625,0.046875,9.796875,-0.00390625,0.00390625,0.0,-0.00048828125,0.00482177734375,0.2203369140625,0.97540283203125,0.13026884678298456,-0.022009220802800367,-9.94748129214959
62,2.520055305999904,bno085,-0.1015625,0.0078125,9.80078125,0.0,0.0,0.0,-0.00048828125,0.00482177734375,0.2203369140625,0.97540283203125,0.13026884678298456,-0.022009220802800367,-9.94748129214959
63,2.5600548430002164,bno085,-0.1015625,0.046875,9.796875,0.001953125,0.0,-0.00390625,-0.00048828125,0.00482177734375,0.2203369140625,0.97540283203125,0.13026884678298456,-0.022009220802800367,-9.94748129214959
64,2.6000550090002434,bno085,-0.1015625,0.0078125,9.7578125,-0.001953125,0.001953125,0.0,-0.00042724609375,0.0048828125,0.2203369140625,0.97540283203125,0.13863187918522293,-0.016728052861146717,-9.947418548320126
65,2.6400553970001965,bno085,-0.0625,0.0078125,9.80078125,-0.001953125,0.001953125,0.0,-0.00048828125,0.0048828125,0.2203369140625,0.97540283203125,0.13180979995156455,-0.015186888606895451,-9.94744768598694
66,2.680055322000044,bno085,-0.1015625,0.0078125,9.80078125,0.001953125,0.0,-0.001953125,-0.00054931640625,0.00494384765625,0.2203369140625,0.97540283203125,0.12652866978713756,-0.006823382848924508,-9.947443235924924
67,2.7200550430002295,bno085,-0.1015625,0.046875,9.76171875,0.0,-0.001953125,0.0,-0.0006103515625,0.0048828125,0.22027587890625,0.97540283203125,0.11820620530538051,-0.012099085530519305,-9.954990315458065
68,2.7600574130001405,bno085,-0.1015625,0.0078125,9.80078125,-0.00390625,-0.001953125,0.0,-0.0006103515625,0.0048828125,0.22027587890625,0.97540283203125,0.11820620530538051,-0.012099085530519305,-9.954990315458065
69,2.8000545790000615,bno085,-0.0625,0.0078125,9.80078125,-0.00390625,-0.001953125,0.0,-0.00067138671875,0.0048828125,0.22027587890625,0.97540283203125,0.11138411834304905,-0.010558348169560264,-9.9550194535724
70,2.840054929999951,bno085,-0.1015625,0.0078125,9.7578125,-0.00390625,0.0,0.0,-0.000732421875,0.0048828125,0.22027587890625,0.97540283203125,0.10456202858671293,-0.00901761081616526,-9.95504859168598
71,2.88005748400019,bno085,-0.1015625,0.0078125,9.80078125,0.001953125,0.001953125,0.0,-0.000732421875,0.0048828125,0.22027587890625,0.97540283203125,0.10456202858671293,-0.00901761081616526,-9.95504859168598
72,2.9200550020000264,bno085,-0.1015625,0.0078125,9.7578125,0.001953125,0.0,0.0,-0.000732421875,0.0048828125,0.22027587890625,0.97540283203125,0.10456202858671293,-0.00901761081616526,-9.95504859168598
73,2.9600548530002015,bno085,-0.1015625,0.0078125,9.7578125,0.00390625,-0.001953125,0.0,-0.00067138671875,0.0048828125,0.22021484375,0.9754638671875,0.11140680373674172,-0.010527299683208176,-9.961112629802816
74,3.0000562410000384,bno085,-0.1015625,0.0078125,9.7578125,-0.001953125,-0.001953125,0.001953125,-0.00067138671875,0.00482177734375,0.22021484375,0.9754638671875,0.10986671460723894,-0.017350065351270226,-9.961145081107619
75,3.040056370000002,bno085,-0.0625,0.0078125,9.80078125,-0.001953125,-0.001953125,0.001953125,-0.0006103515625,0.00482177734375,0.22021484375,0.9754638671875,0.11668922496364416,-0.018890373628691216,-9.961116328335486
76,3.0800561840001137,bno085,-0.1015625,0.0078125,9.80078125,0.005859375,0.001953125,0.0,-0.0006103515625,0.0048828125,0.22015380859375,0.9754638671875,0.11826988347368246,-0.012062118695709986,-9.96856748543958
77,3.120061183999951,bno085,-0.1015625,0.0078125,9.80078125,0.00390625,0.0,0.0,-0.0006103515625,0.0048828125,0.22015380859375,0.9754638671875,0.11826988347368246,-0.012062118695709986,-9.96856748543958
78,3.1600570900000093,bno085,-0.1015625,0.0078125,9.80078125,-0.00390625,0.0,0.0,-0.00048828125,0.0048828125,0.22015380859375,0.9754638671875,0.13191490319606733,-0.015141885976581308,-9.968509208043573
79,3.200057071000174,bno085,-0.1015625,0.0078125,9.7578125,-0.00390625,0.0,0.0,-0.00048828125,0.0048828125,0.22015380859375,0.9754638671875,0.13191490319606733,-0.015141885976581308,-9.968509208043573
80,3.2400576820000424,bno085,-0.1015625,0.0078125,9.80078125,-0.001953125,0.001953125,-0.001953125,-0.00042724609375,0.0048828125,0.22015380859375,0.9754638671875,0.13873740931412637,-0.016681769632921183,-9.968480069344443
81,3.2800550699998894,bno085,-0.1015625,0.0078125,9.80078125,0.00390625,0.001953125,-0.001953125,-0.00042724609375,0.00494384765625,0.22015380859375,0.9754638671875,0.14027708724530596,-0.00985900570963157,-9.968445708600722
82,3.3200576990002446,bno085,-0.1015625,0.0078125,9.7578125,0.005859375,0.0,0.0,-0.00030517578125,0.00494384765625,0.22015380859375,0.9754638671875,0.15392209946242633,-0.012938777485530139,-9.96838666020413
83,3.360055198000282,bno085,-0.1015625,0.0078125,9.80078125,0.005859375,0.0,0.001953125,-0.00030517578125,0.00494384765625,0.22015380859375,0.9754638671875,0.15392209946242633,-0.012938777485530139,-9.96838666020413
84,3.4000560310000765,bno085,-0.1015625,0.0078125,9.80078125,-0.00390625,-0.001953125,0.001953125,-0.00030517578125,0.00494384765625,0.22015380859375,0.9754638671875,0.15392209946242633,-0.012938777485530139,-9.96838666020413
85,3.440055270999892,bno085,-0.1015625,0.0078125,9.80078125,-0.00390625,-0.001953125,0.001953125,-0.00030517578125,0.00494384765625,0.22015380859375,0.9754638671875,0.15392209946242633,-0.012938777485530139,-9.96838666020413
86,3.480055141000321,bno085,-0.1015625,0.0078125,9.7578125,0.0,-0.001953125,0.0,-0.0003662109375,0.00494384765625,0.22015380859375,0.9754638671875,0.1470995944818479,-0.011398891593446495,-9.968416184402713
87,3.5200556220002,bno085,-0.1015625,0.0078125,9.7578125,-0.001953125,0.0,0.001953125,-0.00042724609375,0.00494384765625,0.22015380859375,0.9754638671875,0.14027708724530596,-0.00985900570963157,-9.968445708600722
88,3.560055195000132,bno085,-0.1015625,0.0078125,9.80078125,0.0,0.0,0.0,-0.00042724609375,0.00494384765625,0.22015380859375,0.9754638671875,0.14027708724530596,-0.00985900570963157,-9.968445708600722
89,3.6000552310001694,bno085,-0.0625,0.0078125,9.7578125,0.001953125,0.001953125,-0.001953125,-0.00042724609375,0.0050048828125,0.22021484375,0.9754638671875,0.14177705494784054,-0.003043006700994469,-9.960926989976699
90,3.6400553420003234,bno085,-0.0625,0.0078125,9.80078125,0.001953125,0.001953125,-0.001953125,-0.00042724609375,0.0050048828125,0.22015380859375,0.9754638671875,0.1418167672034365,-0.003036234617811766,-9.96841098114241
91,3.6800586190001923,bno085,-0.1015625,0.0078125,9.7578125,0.0,-0.001953125,0.0,-0.00042724609375,0.0050048828125,0.22015380859375,0.9754638671875,0.1418167672034365,-0.003036234617811766,-9.96841098114241
92,3.7200585440000395,bno085,-0.1015625,0.0078125,9.7578125,0.00390625,0.0,-0.001953125,-0.0003662109375,0.0050048828125,0.22015380859375,0.9754638671875,0.14863927799701274,-0.004576122738847328,-9.968381071446153
93,3.760063543999877,bno085,-0.0625,0.0078125,9.80078125,-0.001953125,0.0,-0.001953125,-0.0003662109375,0.0050048828125,0.22015380859375,0.9754638671875,0.14863927799701274,-0.004576122738847328,-9.968381071446153
94,3.8000571729999137,bno085,-0.1015625,0.0078125,9.80078125,-0.001953125,0.0,0.001953125,-0.00030517578125,0.00494384765625,0.22015380859375,0.9754638671875,0.15392209946242633,-0.012938777485530139,-9.96838666020413
95,3.8400574870001947,bno085,-0.1015625,0.0078125,9.7578125,-0.001953125,0.0,0.001953125,-0.0003662109375,0.00494384765625,0.22021484375,0.9754638671875,0.14705945535264198,-0.011406090533384466,-9.960932193080811
96,3.880058616000042,bno085,-0.1015625,0.046875,9.796875,-0.001953125,0.0,0.0,-0.0003662109375,0.00482177734375,0.22021484375,0.9754638671875,0.14397924089570008,-0.025051606886768007,-9.961001317237704
97,3.9200595970000904,bno085,-0.1015625,0.0078125,9.7578125,0.001953125,-0.001953125,0.0,-0.00030517578125,0.00482177734375,0.22027587890625,0.97540283203125,0.1507760656807818,-0.026625098108852722,-9.954879388215979
98,3.9600592629999483,bno085,-0.1015625,0.0078125,9.80078125,0.00390625,-0.001953125,0.0,-0.00030517578125,0.00482177734375,0.22027587890625,0.97540283203125,0.1507760656807818,-0.026625098108852722,-9.954879388215979
99,4.000058299000102,bno085,-0.1015625,0.046875,9.76171875,0.001953125,0.0,0.0,-0.00030517578125,0.00482177734375,0.22021484375,0.9754638671875,0.15080173906285263,-0.026591915243928572,-9.960972564460945
100,4.0400569470002665,bno085,-0.1015625,0.0078125,9.80078125,0.001953125,0.0,0.0,-0.000244140625,0.00482177734375,0.22021484375,0.9754638671875,0.15762423512667326,-0.028132223620363227,-9.96094381168326
101,4.080059354000241,bno085,-0.1015625,0.046875,9.796875,-0.001953125,0.0,0.0,-0.000244140625,0.00482177734375,0.22021484375,0.97540283203125,0.15763912863408525,-0.028157790268213335,-9.962334660037262
102,4.120060613000078,bno085,-0.1015625,0.0078125,9.80078125,0.00390625,0.0,0.0,-0.00018310546875,0.00482177734375,0.22021484375,0.9754638671875,0.16444672919866857,-0.02967253201718085,-9.96091505890465
103,4.160057149000295,bno085,-0.1015625,0.046875,9.796875,0.001953125,0.001953125,0.0,-0.00018310546875,0.00482177734375,0.22021484375,0.9754638671875,0.16444672919866857,-0.02967253201718085,-9.96091505890465
104,4.200057760000163,bno085,-0.1015625,0.0078125,9.80078125,0.005859375,0.0,0.0,-0.0001220703125,0.00482177734375,0.22021484375,0.9754638671875,0.17126922139034542,-0.0312128404354904,-9.960886306125115
105,4.240056556000127,bno085,-0.1015625,0.046875,9.796875,0.005859375,0.0,0.0,-6.103515625e-05,0.00482177734375,0.22021484375,0.9754638671875,0.17809171181321082,-0.03275314887640087,-9.960857553344654
106,4.2800569999999425,bno085,-0.0625,0.0078125,9.80078125,-0.005859375,-0.001953125,0.0,-0.0001220703125,0.00482177734375,0.22021484375,0.9754638671875,0.17126922139034542,-0.0312128404354904,-9.960886306125115
107,4.3200569250002445,bno085,-0.0625,0.046875,9.76171875,0.001953125,0.001953125,0.0,-0.0001220703125,0.00482177734375,0.22021484375,0.9754638671875,0.17126922139034542,-0.0312128404354904,-9.960886306125115
108,4.360057202000007,bno085,-0.1015625,0.0078125,9.7578125,0.001953125,0.0,0.001953125,-0.0001220703125,0.00482177734375,0.22021484375,0.9754638671875,0.17126922139034542,-0.0312128404354904,-9.960886306125115
109,4.400059424000119,bno085,-0.1015625,0.0078125,9.7578125,-0.00390625,0.0,-0.001953125,-0.0001220703125,0.0048828125,0.22021484375,0.9754638671875,0.17280934087864003,-0.024390094507889027,-9.960850385562718
110,4.440057220000199,bno085,-0.0625,0.046875,9.796875,-0.00390625,0.0,-0.001953125,-0.0001220703125,0.0048828125,0.22021484375,0.9754638671875,0.17280934087864003,-0.024390094507889027,-9.960850385562718
111,4.480057090000173,bno085,-0.1015625,0.046875,9.796875,-0.001953125,-0.001953125,0.0,-0.0001220703125,0.00482177734375,0.22021484375,0.9754638671875,0.17126922139034542,-0.0312128404354904,-9.960886306125115
112,4.520056700000168,bno085,-0.1015625,0.046875,9.76171875,0.0,0.0,0.0,-0.0001220703125,0.0048828125,0.22021484375,0.9754638671875,0.17280934087864003,-0.024390094507889027,-9.960850385562718
113,4.560057052000047,bno085,-0.1015625,0.0078125,9.7578125,0.0,0.0,0.0,-0.0001220703125,0.0048828125,0.22021484375,0.9754638671875,0.17280934087864003,-0.024390094507889027,-9.960850385562718
114,4.600056976999895,bno085,-0.1015625,0.046875,9.796875,0.0,0.0,0.0,-6.103515625e-05,0.0048828125,0.22021484375,0.9754638671875,0.17963183457106602,-0.025930405117568,-9.960821247310063
115,4.640057179999985,bno085,-0.1015625,0.0078125,9.80078125,0.0,0.0,0.0,0.0,0.0048828125,0.22021484375,0.9754638671875,0.18645432658545957,-0.0274707157460332,-9.960792109056657
116,4.680058069000097,bno085,-0.0625,0.0078125,9.7578125,0.0,0.0,0.0,0.0,0.0048828125,0.22021484375,0.9754638671875,0.18645432658545957,-0.0274707157460332,-9.960792109056657
117,4.72005979100004,bno085,-0.1015625,0.0078125,9.80078125,0.0,0.0,0.0,0.0,0.0048828125,0.22021484375,0.97540283203125,0.186467512750631,-0.027496709252694963,-9.962182956049297
118,4.760058457000014,bno085,-0.1015625,0.046875,9.796875,0.0,0.0,0.0,0.0,0.0048828125,0.22021484375,0.97540283203125,0.186467512750631,-0.027496709252694963,-9.962182956049297
119,4.800057770999956,bno085,-0.1015625,0.0078125,9.80078125,0.0,0.0,0.0,6.103515625e-05,0.0048828125,0.22021484375,0.97540283203125,0.19328957635783547,-0.029037019906205594,-9.962153817476393
120,4.840056974000163,bno085,-0.1015625,0.046875,9.76171875,0.0,0.0,0.0,6.103515625e-05,0.0048828125,0.22021484375,0.97540283203125,0.19328957635783547,-0.029037019906205594,-9.962153817476393
121,4.880057029,bno085,-0.21484375,0.12109375,9.80078125,-0.001953125,0.048828125,-0.146484375,-0.0001220703125,0.00567626953125,0.21807861328125,0.97589111328125,0.1939566572471499,0.06484369749825077,-10.212432557019353
122,4.920057899000312,bno085,-0.1015625,0.046875,9.796875,0.0,0.001953125,0.0,-0.00018310546875,0.00579833984375,0.2177734375,0.97601318359375,0.19032302148006855,0.08012959437740062,-10.246997563619852
123,4.960057362000043,bno085,-0.1015625,0.0078125,9.80078125,-0.001953125,-0.005859375,0.0,-0.00018310546875,0.00579833984375,0.2177734375,0.97601318359375,0.19032302148006855,0.08012959437740062,-10.246997563619852
124,5.000057323999954,bno085,-0.1015625,0.0078125,9.80078125,0.001953125,0.005859375,-0.00390625,-0.00018310546875,0.00579833984375,0.2177734375,0.97601318359375,0.19032302148006855,0.08012959437740062,-10.246997563619852
125,5.040057287000309,bno085,-0.1015625,0.0078125,9.80078125,0.001953125,0.005859375,-0.00390625,-0.00018310546875,0.005859375,0.2176513671875,0.97601318359375,0.1919132811979923,0.08697389979681187,-10.261903067613979
126,5.080056435000188,bno085,-0.1015625,0.0078125,9.80078125,-0.001953125,0.0,-0.005859375,-0.000244140625,0.005859375,0.217529296875,0.97601318359375,0.18515403020321308,0.08851308745394106,-10.276883989341037
127,5.12006617499992,bno085,-0.1015625,0.0078125,9.80078125,0.001953125,0.005859375,-0.001953125,-0.000244140625,0.0059814453125,0.2174072265625,0.97607421875,0.18824749351076395,0.10221712230902298,-10.290368344237125
128,5.160059101000115,bno085,-0.1015625,0.046875,9.76171875,0.0,-0.001953125,-0.001953125,-0.000244140625,0.0059814453125,0.2174072265625,0.97607421875,0.18824749351076395,0.10221712230902298,-10.290368344237125
129,5.200058859999899,bno085,-0.0625,-0.03125,9.7578125,0.01953125,0.001953125,-0.015625,-0.000244140625,0.00592041015625,0.2174072265625,0.97607421875,0.18672696538851621,0.09538996230533368,-10.290410057140344
130,5.240060563000043,bno085,-0.1015625,0.0078125,9.80078125,0.01953125,0.001953125,-0.015625,-0.00030517578125,0.00604248046875,0.21649169921875,0.97625732421875,0.18337967347769663,0.11078827420986483,-10.39829110364607
131,5.280055710999932,bno085,-0.1015625,0.046875,9.796875,0.001953125,0.015625,0.00390625,-0.00018310546875,0.0059814453125,0.21649169921875,0.97625732421875,0.19552179790217464,0.10093119258662081,-10.3982605248082
132,5.320062618000065,bno085,-0.140625,0.046875,9.80078125,0.001953125,0.0,0.0,-0.00018310546875,0.0059814453125,0.2164306640625,0.97625732421875,0.19555445234892943,0.10094014752468969,-10.405728512128208
133,5.360057192000113,bno085,-0.1015625,0.0078125,9.7578125,-0.001953125,0.00390625,0.0,-0.00018310546875,0.0059814453125,0.2164306640625,0.97625732421875,0.19555445234892943,0.10094014752468969,-10.405728512128208
134,5.400057655000182,bno085,-0.1015625,0.0078125,9.80078125,-0.001953125,0.001953125,-0.001953125,-0.00018310546875,0.0059814453125,0.2164306640625,0.97625732421875,0.19555445234892943,0.10094014752468969,-10.405728512128208
135,5.4400619689999985,bno085,-0.1015625,0.0078125,9.80078125,-0.001953125,0.001953125,-0.001953125,-0.0001220703125,0.00592041015625,0.2164306640625,0.97625732421875,0.20086886457302477,0.09259782414812007,-10.405734857486383
136,5.4800554870003,bno085,-0.140625,0.046875,9.7578125,-0.00390625,0.001953125,-0.001953125,-0.0001220703125,0.0059814453125,0.21630859375,0.976318359375,0.20243406205364012,0.09947886626048257,-10.419256036056558
137,5.520057561000158,bno085,-0.1015625,0.0078125,9.80078125,0.00390625,0.01171875,-0.02734375,-0.0001220703125,0.0062255859375,0.2154541015625,0.97650146484375,0.20887696135497777,0.12703343362944708,-10.519494347771248
138,5.560055560999899,bno085,-0.1015625,0.0078125,9.80078125,-0.001953125,0.001953125,0.0,-0.0001220703125,0.0062255859375,0.2154541015625,0.97650146484375,0.20887696135497777,0.12703343362944708,-10.519494347771248
139,5.600057042000117,bno085,-0.1015625,0.0078125,9.80078125,0.0,0.001953125,-0.001953125,-0.0001220703125,0.0062255859375,0.2152099609375,0.9765625,0.2089867329757268,0.127107107085762,-10.547981385736724
140,5.640059060000112,bno085,-0.140625,0.046875,9.7578125,0.0,0.001953125,-0.001953125,-6.103515625e-05,0.0062255859375,0.21514892578125,0.9765625,0.21584787731581961,0.12561171969758775,-10.555406399680951
141,5.680058615000235,bno085,-0.140625,0.046875,9.7578125,-0.001953125,0.00390625,-0.01953125,-0.0001220703125,0.0062255859375,0.21484375,0.97662353515625,0.20915816896575049,0.12720007917752219,-10.591388823854643
142,5.720057745000304,bno085,-0.1015625,0.0078125,9.80078125,0.001953125,0.001953125,-0.013671875,-0.0001220703125,0.00634765625,0.2144775390625,0.9766845703125,0.21232962628759974,0.14095628741320554,-10.634699491424934
143,5.760061744000268,bno085,-0.1015625,0.0078125,9.7578125,0.00390625,0.00390625,-0.015625,-0.0001220703125,0.00634765625,0.2144775390625,0.9766845703125,0.21232962628759974,0.14095628741320554,-10.634699491424934
144,5.800057558999924,bno085,-0.140625,0.046875,9.7578125,0.009765625,0.001953125,0.001953125,-6.103515625e-05,0.00640869140625,0.214111328125,0.976806640625,0.22081154059688762,0.1464218122988426,-10.676647008768125
145,5.8400577249999515,bno085,-0.140625,0.0078125,9.796875,0.009765625,0.001953125,0.001953125,0.0,0.00640869140625,0.21417236328125,0.976806640625,0.2276140089415675,0.14491359328229167,-10.669149689990494
146,5.880056891000095,bno085,-0.1796875,0.0859375,9.76171875,0.0078125,0.021484375,-0.08984375,6.103515625e-05,0.0068359375,0.2127685546875,0.97711181640625,0.24547954117919385,0.19169565898160792,-10.83347397273365
147,5.920058947000143,bno085,-0.140625,0.0078125,9.796875,0.005859375,0.017578125,-0.0703125,0.00018310546875,0.00732421875,0.21112060546875,0.9774169921875,0.27161721589166116,0.2439390498988507,-11.027366471674886
148,5.960057428000255,bno085,-0.140625,0.046875,9.80078125,0.013671875,0.017578125,-0.048828125,0.00018310546875,0.00732421875,0.21112060546875,0.9774169921875,0.27161721589166116,0.2439390498988507,-11.027366471674886
149,6.000057835000007,bno085,-0.140625,0.0078125,9.796875,0.009765625,0.017578125,-0.0390625,0.0003662109375,0.0078125,0.209716796875,0.97772216796875,0.3043381232018482,0.29474922459245856,-11.191271429531666
150,6.040058113000214,bno085,-0.1796875,0.0859375,9.76171875,0.009765625,0.017578125,-0.0390625,0.0006103515625,0.0081787109375,0.2088623046875,0.9779052734375,0.3407054405402611,0.33027932422536,-11.290855355452633
151,6.080056889999923,bno085,-0.140625,0.0078125,9.76171875,0.025390625,0.015625,-0.0625,0.0009765625,0.00848388671875,0.207763671875,0.9781494140625,0.3892914529908946,0.3562469483031752,-11.418733331211644
152,6.120061186999919,bno085,-0.1796875,0.0859375,9.796875,0.0234375,0.005859375,-0.02734375,0.00152587890625,0.00872802734375,0.20721435546875,0.978271484375,0.45679268509815796,0.37083983214603217,-11.482217180665012
153,6.1600602980001895,bno085,-0.140625,0.046875,9.7578125,0.037109375,-0.005859375,-0.01171875,0.00152587890625,0.00872802734375,0.20721435546875,0.978271484375,0.45679268509815796,0.37083983214603217,-11.482217180665012
154,6.200056001000121,bno085,-0.21484375,0.12109375,9.8359375,0.091796875,-0.017578125,0.037109375,0.0025634765625,0.0089111328125,0.20660400390625,0.9783935546875,0.5775917207340013,0.3671291677616781,-11.552714060615862
155,6.240055445000053,bno085,-0.1796875,0.12109375,9.83984375,0.091796875,-0.017578125,0.037109375,0.00537109375,0.00897216796875,0.20745849609375,0.97821044921875,0.8936054801854765,0.3066379710379747,-11.450055739370812
156,6.280056038000112,bno085,-0.1015625,0.16015625,9.7578125,0.1796875,-0.025390625,0.109375,0.0107421875,0.00897216796875,0.210205078125,0.9775390625,1.4945720920933292,0.1744366998655634,-11.125233401055917
157,6.320054908000202,bno085,-0.1015625,0.19921875,10.140625,0.37109375,-0.048828125,0.064453125,0.02093505859375,0.00933837890625,0.21185302734375,0.97705078125,2.6444725032227754,-0.03481587715436598,-10.924598449869587
158,6.360055000000102,bno085,-0.1015625,0.58203125,9.98828125,1.2421875,-0.13671875,0.02734375,0.02093505859375,0.00933837890625,0.21185302734375,0.97705078125,2.6444725032227754,-0.03481587715436598,-10.924598449869587
159,6.40005731500014,bno085,-0.0234375,0.96484375,9.60546875,0.9921875,-0.056640625,-0.056640625,0.0504150390625,0.0118408203125,0.21221923828125,0.975830078125,6.008328351168921,-0.47416527059073804,-10.863097268423195
160,6.440059500000189,bno085,0.01171875,1.42578125,9.6015625,0.9921875,-0.056640625,-0.056640625,0.07757568359375,0.01611328125,0.2108154296875,0.97430419921875,9.161985529580218,-0.6470907358883126,-10.994158904572659
161,6.480054981000194,bno085,-0.0234375,2.0390625,9.53125,1.259765625,-0.041015625,-0.033203125,0.107177734375,0.02264404296875,0.2091064453125,0.97174072265625,12.652814904176397,-0.6185634257317658,-11.122998896464582
162,6.520055704000242,bno085,-0.0234375,2.49609375,9.3359375,1.384765625,-0.013671875,-0.05078125,0.1402587890625,0.0301513671875,0.20721435546875,0.96771240234375,16.572394205329513,-0.558644065468062,-11.232378076808033
163,6.560055981000005,bno085,-0.0234375,2.84375,9.375,0.890625,0.119140625,-0.109375,0.1402587890625,0.0301513671875,0.20721435546875,0.96771240234375,16.572394205329513,-0.558644065468062,-11.232378076808033
164,6.600056981000307,bno085,-0.1796875,3.2265625,8.80078125,1.412109375,-0.041015625,-0.080078125,0.15869140625,0.0389404296875,0.2037353515625,0.96533203125,18.878164274602124,0.031275760584144725,-11.468938253368052
165,6.640057998999964,bno085,-0.1796875,3.83984375,8.80078125,1.412109375,-0.041015625,-0.080078125,0.186767578125,0.04632568359375,0.200439453125,0.96063232421875,22.255433391504184,0.2386412661559553,-11.674235073382608
166,6.680057666000266,bno085,-0.21484375,3.953125,8.765625,0.95703125,-0.041015625,-0.087890625,0.2081298828125,0.051513671875,0.19696044921875,0.9566650390625,24.827365710338878,0.37901240370815126,-11.929869728008049
167,6.720056240000304,bno085,-0.25390625,4.56640625,8.53515625,1.154296875,0.0,-0.060546875,0.232177734375,0.0576171875,0.19366455078125,0.95147705078125,27.74505780353775,0.5590859621380264,-12.115843560809163
168,6.760056388000066,bno085,-0.25390625,4.796875,8.26953125,0.931640625,0.0625,-0.021484375,0.232177734375,0.0576171875,0.19366455078125,0.95147705078125,27.74505780353775,0.5590859621380264,-12.115843560809163
169,6.80005651700003,bno085,-0.29296875,5.02734375,8.23046875,0.626953125,0.00390625,-0.048828125,0.25311279296875,0.0633544921875,0.19158935546875,0.9461669921875,30.309082701697893,0.741775821059433,-12.155449973431203
170,6.84005514699993,bno085,-0.33203125,5.1796875,8.1875,0.626953125,0.00390625,-0.048828125,0.26898193359375,0.06707763671875,0.18914794921875,0.9420166015625,32.24786839267942,0.8406276508551617,-12.289967248346883
171,6.880057313000179,bno085,-0.37109375,5.5625,7.8828125,0.83984375,0.052734375,-0.013671875,0.28741455078125,0.072021484375,0.1878662109375,0.9364013671875,34.52596681616492,0.9706353112475575,-12.238934104275499
172,6.920056980000027,bno085,-0.33203125,5.75390625,7.76953125,0.744140625,0.02734375,0.01953125,0.30499267578125,0.0762939453125,0.1868896484375,0.93072509765625,36.70330823731214,1.0350655596745935,-12.164201337631116
173,6.960056553999948,bno085,-0.37109375,5.984375,7.58203125,0.744140625,0.05078125,0.0390625,0.30499267578125,0.0762939453125,0.1868896484375,0.93072509765625,36.70330823731214,1.0350655596745935,-12.164201337631116
174,7.000057720000314,bno085,-0.37109375,6.40625,7.16015625,1.2734375,0.19921875,0.232421875,0.323486328125,0.0809326171875,0.1868896484375,0.924072265625,39.01198870405882,1.0717396530192491,-11.955487006291465
175,7.040055202000076,bno085,-0.37109375,6.7109375,6.96484375,1.2734375,0.19921875,0.232421875,0.35101318359375,0.08868408203125,0.19073486328125,0.9124755859375,42.503379167028385,1.0293992159193872,-11.167973389702269
176,7.080058220999945,bno085,-0.37109375,6.83203125,6.7734375,1.265625,0.19140625,0.216796875,0.37677001953125,0.09698486328125,0.1947021484375,0.90045166015625,45.8376243638577,1.028416519602525,-10.324267315111927
177,7.120061016999898,bno085,-0.33203125,7.2421875,6.42578125,1.2890625,0.296875,0.2734375,0.40447998046875,0.107421875,0.2008056640625,0.8857421875,49.515977932198275,1.021890539134975,-9.122198289292223
178,7.160057498000242,bno085,-0.33203125,7.6640625,5.81640625,1.2421875,0.251953125,0.2265625,0.42962646484375,0.11712646484375,0.205078125,0.87158203125,52.91393193949441,1.0269968643987952,-8.127043477675155
179,7.200058406000153,bno085,-0.29296875,7.86328125,5.5859375,1.044921875,0.205078125,0.134765625,0.42962646484375,0.11712646484375,0.205078125,0.87158203125,52.91393193949441,1.0269968643987952,-8.127043477675155
180,7.240058221000254,bno085,-0.33203125,8.08984375,5.35546875,1.044921875,0.205078125,0.134765625,0.4512939453125,0.12548828125,0.20733642578125,0.85882568359375,55.88462308790915,1.0522276503801868,-7.397516690100597
181,7.280057702000249,bno085,-0.29296875,8.40234375,4.8203125,0.8046875,0.10546875,0.05078125,0.46875,0.1319580078125,0.20770263671875,0.848388671875,58.30197951665713,1.0964239748069131,-6.958658635573803
182,7.3200572760001705,bno085,-0.4453125,8.5078125,4.6640625,0.544921875,0.013671875,-0.009765625,0.4814453125,0.13568115234375,0.206298828125,0.84100341796875,60.04475344224532,1.118793518258634,-6.860070730418834
183,7.360057184000198,bno085,-0.33203125,8.5859375,4.55078125,0.521484375,0.017578125,0.0,0.4814453125,0.13568115234375,0.206298828125,0.84100341796875,60.04475344224532,1.118793518258634,-6.860070730418834
184,7.400057369000024,bno085,-0.41015625,8.625,4.3984375,0.48046875,-0.033203125,-0.01953125,0.49285888671875,0.13897705078125,0.2047119140625,0.834228515625,61.62340908648847,1.148300330138335,-6.800738164815481
185,7.440056812999956,bno085,-0.37109375,8.78515625,4.12890625,0.48046875,-0.033203125,-0.01953125,0.50335693359375,0.14154052734375,0.20257568359375,0.82794189453125,63.06832178984749,1.1684736707728134,-6.839831853402236
186,7.4800570910001625,bno085,-0.41015625,8.8203125,3.9375,0.58984375,-0.01953125,-0.029296875,0.51556396484375,0.14495849609375,0.20025634765625,0.82037353515625,64.7806694162335,1.2207119972592353,-6.831895230028019
187,7.5200572020003165,bno085,-0.41015625,8.96875,3.5546875,1.353515625,0.1953125,0.08203125,0.53515625,0.15203857421875,0.1993408203125,0.806640625,67.61975271928408,1.2534074349920037,-6.4205395608879705
188,7.560056684000301,bno085,-0.41015625,9.125,3.171875,0.80859375,0.1328125,0.05859375,0.54998779296875,0.15789794921875,0.19915771484375,0.7955322265625,69.82028590531077,1.2665602091142747,-6.011140122434202
189,7.600057221000043,bno085,-0.41015625,9.27734375,3.0546875,0.966796875,0.150390625,0.05078125,0.54998779296875,0.15789794921875,0.19915771484375,0.7955322265625,69.82028590531077,1.2665602091142747,-6.011140122434202
190,7.640056962000017,bno085,-0.4453125,9.31640625,2.75,0.966796875,0.150390625,0.05078125,0.568359375,0.1649169921875,0.1982421875,0.78131103515625,72.57947015585945,1.2778489746793233,-5.570320525104691
191,7.680057053999917,bno085,-0.41015625,9.58984375,2.17578125,0.83984375,0.0703125,-0.001953125,0.5869140625,0.172119140625,0.19659423828125,0.766357421875,75.42259728924878,1.3168906254183603,-5.164766610735444
192,7.720057239000198,bno085,-0.37109375,9.66015625,1.83203125,0.654296875,0.013671875,0.009765625,0.6009521484375,0.177001953125,0.19488525390625,0.75469970703125,77.58745154551144,1.310635039655286,-4.929814829629755
193,7.760058147000109,bno085,-0.41015625,9.65625,1.67578125,0.36328125,-0.0234375,-0.009765625,0.6009521484375,0.177001953125,0.19488525390625,0.75469970703125,77.58745154551144,1.310635039655286,-4.929814829629755
194,7.800057443000242,bno085,-0.41015625,9.66015625,1.6015625,0.326171875,-0.001953125,0.00390625,0.6090087890625,0.17852783203125,0.1923828125,0.74847412109375,78.79353490386552,1.3100133122401945,-5.026825663083708
195,7.840057073000025,bno085,-0.41015625,9.69921875,1.44921875,0.345703125,0.0234375,0.009765625,0.61553955078125,0.17974853515625,0.19036865234375,0.74334716796875,79.77872082713536,1.3072046197456786,-5.1021546177307515
196,7.880056721000074,bno085,-0.41015625,9.73828125,1.2578125,0.345703125,0.0234375,0.009765625,0.62176513671875,0.18170166015625,0.1893310546875,0.7379150390625,80.7560390583999,1.298602828270507,-5.031302125080883
197,7.920057702000122,bno085,-0.41015625,9.6953125,1.21875,0.28125,0.05078125,0.01171875,0.62713623046875,0.18426513671875,0.18927001953125,0.73272705078125,81.6410808771853,1.293638097829135,-4.824337700788638
198,7.960066110000298,bno085,-0.41015625,9.77734375,0.98828125,0.26953125,0.03125,0.01171875,0.633056640625,0.18707275390625,0.18939208984375,0.72686767578125,82.62296888985716,1.2664531840955893,-4.578491153647811
199,8.000059240000155,bno085,-0.41015625,9.77734375,0.91015625,0.2265625,0.005859375,0.013671875,0.633056640625,0.18707275390625,0.18939208984375,0.72686767578125,82.62296888985716,1.2664531840955893,-4.578491153647811
200,8.04005568399998,bno085,-0.37109375,9.81640625,0.796875,0.2265625,0.005859375,0.013671875,0.63775634765625,0.1884765625,0.1888427734375,0.7225341796875,83.37326789562609,1.2278906193561487,-4.50492797658225
201,8.080055092000293,bno085,-0.37109375,9.7734375,0.796875,0.19140625,0.025390625,0.021484375,0.64105224609375,0.18951416015625,0.1885986328125,0.71942138671875,83.90432170672493,1.1927545788205,-4.435847027690227
202,8.120065832999899,bno085,-0.37109375,9.7734375,0.6796875,0.1171875,0.02734375,0.01171875,0.64337158203125,0.19036865234375,0.1884765625,0.7171630859375,84.28459296101052,1.1727764264851261,-4.3726552892582395
203,8.160055462999935,bno085,-0.37109375,9.8125,0.64453125,0.07421875,0.009765625,0.00390625,0.64337158203125,0.19036865234375,0.1884765625,0.7171630859375,84.28459296101052,1.1727764264851261,-4.3726552892582395
204,8.200055851999878,bno085,-0.41015625,9.77734375,0.64453125,0.068359375,0.00390625,0.001953125,0.64483642578125,0.19085693359375,0.188232421875,0.7158203125,84.52349657337138,1.1698705709572519,-4.350800094120372
205,8.240054555999905,bno085,-0.4453125,9.73828125,0.52734375,0.193359375,0.130859375,0.013671875,0.64593505859375,0.1912841796875,0.18798828125,0.7147216796875,84.70500768240186,1.1753024876560456,-4.336329510834759
206,8.280054685000323,bno085,-0.25390625,9.85546875,0.60546875,0.193359375,0.130859375,0.013671875,0.64764404296875,0.19256591796875,0.18841552734375,0.71270751953125,85.01462280057667,1.1673045971119531,-4.191406792967785
207,8.320054926000012,bno085,-0.37109375,9.77734375,0.52734375,0.04296875,0.0,0.00390625,0.648193359375,0.19293212890625,0.18841552734375,0.712158203125,85.11277847913047,1.173127577973944,-4.15952917622297
208,8.360054519000187,bno085,-0.37109375,9.8125,0.52734375,0.013671875,-0.005859375,0.0,0.648193359375,0.19293212890625,0.18841552734375,0.712158203125,85.11277847913047,1.173127577973944,-4.15952917622297
209,8.400054629999886,bno085,-0.37109375,9.77734375,0.52734375,0.046875,-0.01171875,0.001953125,0.64849853515625,0.19287109375,0.18817138671875,0.7119140625,85.15554529484784,1.1743850970727758,-4.186043265884306
210,8.440054945000156,bno085,-0.37109375,9.8125,0.48828125,0.046875,-0.01171875,0.001953125,0.6492919921875,0.19281005859375,0.18768310546875,0.71136474609375,85.2719478322575,1.1764477655785335,-4.231406100349633
211,8.48005466800032,bno085,-0.37109375,9.8125,0.453125,0.02734375,-0.0234375,0.001953125,0.65008544921875,0.19268798828125,0.18707275390625,0.7108154296875,85.38561618429564,1.1828104029191013,-4.29320318569564
212,8.520054445999904,bno085,-0.33203125,9.8125,0.48828125,0.0,0.005859375,0.001953125,0.6505126953125,0.19342041015625,0.18756103515625,0.71014404296875,85.4813028846448,1.1819414229999863,-4.18908873563794
213,8.560054687000047,bno085,-0.37109375,9.8125,0.48828125,0.044921875,0.01171875,0.0,0.6505126953125,0.19342041015625,0.18756103515625,0.71014404296875,85.4813028846448,1.1819414229999863,-4.18908873563794
214,8.600054260999968,bno085,-0.41015625,9.77734375,0.48828125,0.099609375,0.015625,-0.001953125,0.65118408203125,0.19390869140625,0.18756103515625,0.7093505859375,85.60284260727822,1.1896889930591206,-4.148545105279497
215,8.640054576000239,bno085,-0.37109375,9.8125,0.453125,0.099609375,0.015625,-0.001953125,0.653076171875,0.19464111328125,0.18695068359375,0.70758056640625,85.91915281296657,1.2147479314372525,-4.137240913170863
216,8.680054557999938,bno085,-0.33203125,9.8125,0.4140625,0.08984375,-0.013671875,0.001953125,0.655517578125,0.19537353515625,0.18585205078125,0.70538330078125,86.31918854450485,1.2552299683037857,-4.167184550141546
217,8.720054391000303,bno085,-0.37109375,9.8125,0.375,0.0078125,-0.001953125,0.0,0.65625,0.195556640625,0.18548583984375,0.70477294921875,86.43803523128229,1.2682570892443765,-4.18162263158316
218,8.760055558000204,bno085,-0.37109375,9.8125,0.375,-0.029296875,-0.001953125,0.0,0.65625,0.195556640625,0.18548583984375,0.70477294921875,86.43803523128229,1.2682570892443765,-4.18162263158316
219,8.800054984000326,bno085,-0.37109375,9.8125,0.4140625,-0.02734375,-0.001953125,0.0,0.65618896484375,0.1956787109375,0.1854248046875,0.70477294921875,86.43404889612023,1.284080502474966,-4.177663555813824
220,8.840054818000226,bno085,-0.37109375,9.8125,0.375,-0.02734375,-0.001953125,0.0,0.65631103515625,0.19573974609375,0.18524169921875,0.7047119140625,86.45537943310552,1.2987880667298306,-4.1877649571268005
221,8.880054707,bno085,-0.37109375,9.8125,0.4140625,-0.01953125,-0.009765625,0.0,0.65618896484375,0.19573974609375,0.18505859375,0.70489501953125,86.4371992849444,1.3192278855194137,-4.2034605429455745
222,8.920054799999889,bno085,-0.37109375,9.8125,0.375,-0.06640625,-0.0390625,-0.00390625,0.65570068359375,0.19512939453125,0.1845703125,0.7056884765625,86.33732585307527,1.3346502601645098,-4.296336050501628
223,8.960054836999916,bno085,-0.37109375,9.8125,0.453125,-0.119140625,-0.08203125,-0.0078125,0.65570068359375,0.19512939453125,0.1845703125,0.7056884765625,86.33732585307527,1.3346502601645098,-4.296336050501628
224,9.000054633000218,bno085,-0.37109375,9.8125,0.52734375,-0.1015625,-0.05078125,-0.01171875,0.654541015625,0.193603515625,0.1834716796875,0.7073974609375,86.0964039731751,1.3562799378735628,-4.520948333203697
225,9.040054597000108,bno085,-0.37109375,9.7734375,0.56640625,-0.1015625,-0.05078125,-0.01171875,0.6533203125,0.1925048828125,0.18267822265625,0.70904541015625,85.86578002393261,1.388656636958346,-4.6824526634432
226,9.080055541000092,bno085,-0.37109375,9.7734375,0.60546875,-0.0078125,-0.033203125,-0.00390625,0.65362548828125,0.1920166015625,0.18182373046875,0.7091064453125,85.89108553374093,1.4079914284937638,-4.795952206723079
227,9.120062764000068,bno085,-0.37109375,9.81640625,0.56640625,0.041015625,-0.037109375,0.001953125,0.65472412109375,0.191650390625,0.180908203125,0.70843505859375,86.04128139213496,1.4092918529572853,-4.90240690779254
228,9.160054876000231,bno085,-0.37109375,9.8125,0.52734375,0.009765625,-0.009765625,0.0,0.65472412109375,0.191650390625,0.180908203125,0.70843505859375,86.04128139213496,1.4092918529572853,-4.90240690779254
229,9.200055524000163,bno085,-0.37109375,9.8125,0.52734375,-0.001953125,-0.0078125,0.0,0.65533447265625,0.19171142578125,0.18060302734375,0.70794677734375,86.13613665216786,1.413762065626428,-4.922021984162818
230,9.240054450000116,bno085,-0.37109375,9.8125,0.48828125,-0.001953125,-0.0078125,0.0,0.65557861328125,0.191650390625,0.18035888671875,0.70782470703125,86.1706037714843,1.4193768696036697,-4.9470829594403085
231,9.28005443200027,bno085,-0.37109375,9.8125,0.52734375,-0.05859375,-0.017578125,-0.00390625,0.65496826171875,0.19134521484375,0.18011474609375,0.70849609375,86.06547125710408,1.4403823636863007,-4.995417902921563
232,9.320054710000022,bno085,-0.41015625,9.7734375,0.56640625,-0.0703125,-0.041015625,-0.0078125,0.654052734375,0.1905517578125,0.17962646484375,0.70965576171875,85.89381556064127,1.4568611013997654,-5.1054176373423585
233,9.360054692000176,bno085,-0.37109375,9.7734375,0.60546875,-0.03515625,-0.017578125,-0.001953125,0.65362548828125,0.190185546875,0.1793212890625,0.71026611328125,85.81432861176941,1.4719742434176164,-5.162161839161619
234,9.400054526000076,bno085,-0.37109375,9.7734375,0.60546875,-0.03515625,-0.033203125,-0.00390625,0.65362548828125,0.190185546875,0.1793212890625,0.71026611328125,85.81432861176941,1.4719742434176164,-5.162161839161619
235,9.44005437800024,bno085,-0.37109375,9.77734375,0.64453125,-0.03515625,-0.033203125,-0.00390625,0.65338134765625,0.189697265625,0.1787109375,0.71075439453125,85.75707804748092,1.4936432667877682,-5.255962860083054
236,9.48005460100012,bno085,-0.37109375,9.77734375,0.64453125,-0.00390625,-0.037109375,-0.001953125,0.65350341796875,0.18914794921875,0.17803955078125,0.7109375,85.75239544326111,1.5007246288170826,-5.359090245564857
237,9.520054526999957,bno085,-0.37109375,9.77734375,0.64453125,0.001953125,-0.01171875,0.0,0.65386962890625,0.18896484375,0.1776123046875,0.71075439453125,85.79997377916965,1.5064071810569577,-5.410157606990831
238,9.560053527000036,bno085,-0.37109375,9.77734375,0.64453125,-0.0078125,0.0,-0.001953125,0.65399169921875,0.18896484375,0.177490234375,0.710693359375,85.81853837268856,1.5117124885919693,-5.420039148794128
239,9.60005471300019,bno085,-0.37109375,9.77734375,0.64453125,0.001953125,0.001953125,0.001953125,0.65399169921875,0.18896484375,0.177490234375,0.710693359375,85.81853837268856,1.5117124885919693,-5.420039148794128
240,9.640056712999922,bno085,-0.37109375,9.77734375,0.64453125,0.021484375,0.005859375,0.00390625,0.6541748046875,0.18902587890625,0.1773681640625,0.71051025390625,85.84860132083323,1.5182100878625573,-5.425635701227071
241,9.68005501000016,bno085,-0.37109375,9.77734375,0.64453125,0.021484375,0.005859375,0.00390625,0.6546630859375,0.18927001953125,0.1773681640625,0.71002197265625,85.9326311746823,1.5175101593035756,-5.403910193778604
242,9.72005471400007,bno085,-0.37109375,9.77734375,0.64453125,0.03515625,0.001953125,0.00390625,0.6553955078125,0.189453125,0.17724609375,0.70928955078125,86.05064751442315,1.510862326346063,-5.398235198721577
243,9.76005543600013,bno085,-0.41015625,9.7734375,0.60546875,0.02734375,-0.005859375,0.001953125,0.6561279296875,0.18963623046875,0.17706298828125,0.70867919921875,86.16939515221223,1.5112247038882334,-5.3958948364520944
244,9.800054474000262,bno085,-0.37109375,9.81640625,0.56640625,0.025390625,0.001953125,0.0,0.6561279296875,0.18963623046875,0.17706298828125,0.70867919921875,86.16939515221223,1.5112247038882334,-5.3958948364520944
245,9.840054659000089,bno085,-0.37109375,9.7734375,0.56640625,0.01953125,0.005859375,0.001953125,0.65673828125,0.18975830078125,0.17694091796875,0.70806884765625,86.2665859462447,1.504753370715152,-5.395579349196285
246,9.880054437000126,bno085,-0.37109375,9.7734375,0.56640625,0.01953125,0.005859375,0.001953125,0.65716552734375,0.18994140625,0.17694091796875,0.7076416015625,86.33901888049934,1.5016027275000456,-5.379106253093552
247,9.920056271000249,bno085,-0.37109375,9.81640625,0.56640625,0.013671875,0.0078125,0.00390625,0.65753173828125,0.19012451171875,0.17694091796875,0.70721435546875,86.40198863613907,1.4997902318251488,-5.363765081265898
248,9.960054679000223,bno085,-0.37109375,9.7734375,0.56640625,0.017578125,0.005859375,0.0,0.65777587890625,0.1903076171875,0.17694091796875,0.70697021484375,86.44687811464713,1.504285902657624,-5.347495048882682
249,10.00005447600006,bno085,-0.37109375,9.8125,0.52734375,0.01171875,0.001953125,0.0,0.65777587890625,0.1903076171875,0.17694091796875,0.70697021484375,86.44687811464713,1.504285902657624,-5.347495048882682
250,10.040054790999875,bno085,-0.37109375,9.81640625,0.56640625,0.00390625,0.009765625,0.00390625,0.6580810546875,0.1904296875,0.1768798828125,0.7066650390625,86.49827555868961,1.5059375132214663,-5.341970372175286
251,10.080055199000071,bno085,-0.37109375,9.81640625,0.56640625,0.00390625,0.009765625,0.00390625,0.65838623046875,0.190673828125,0.17694091796875,0.706298828125,86.55484909961504,1.5069100933047013,-5.315823972208164
252,10.120061162000184,bno085,-0.37109375,9.77734375,0.52734375,0.005859375,0.00390625,0.00390625,0.65863037109375,0.19085693359375,0.177001953125,0.7060546875,86.5998280167482,1.5067258722654635,-5.293999490607994
253,10.160054848000073,bno085,-0.37109375,9.7734375,0.56640625,-0.00390625,0.005859375,0.001953125,0.65863037109375,0.19097900390625,0.17706298828125,0.70599365234375,86.60495914920143,1.510684927137472,-5.27890093848949
254,10.200055162999888,bno085,-0.37109375,9.81640625,0.56640625,0.013671875,0.001953125,0.001953125,0.65863037109375,0.19097900390625,0.17706298828125,0.70599365234375,86.60495914920143,1.510684927137472,-5.27890093848949
255,10.24005483100018,bno085,-0.37109375,9.7734375,0.56640625,0.02734375,0.00390625,0.0,0.65887451171875,0.19110107421875,0.177001953125,0.70574951171875,86.64720606076516,1.514866820476951,-5.273419337732885
256,10.28005588699989,bno085,-0.37109375,9.77734375,0.52734375,0.02734375,0.00390625,0.0,0.65924072265625,0.19122314453125,0.177001953125,0.705322265625,86.70767407191697,1.5080515993913626,-5.2633165385268175
257,10.320055313000012,bno085,-0.37109375,9.8125,0.52734375,0.015625,0.0,0.001953125,0.6595458984375,0.19134521484375,0.17694091796875,0.705078125,86.75946830133833,1.5108633674576466,-5.256654868312881
258,10.360055203000229,bno085,-0.37109375,9.77734375,0.52734375,0.005859375,0.005859375,0.0,0.65960693359375,0.19146728515625,0.177001953125,0.7049560546875,86.77384891484097,1.5122283958496956,-5.241457363369028
259,10.400054498999907,bno085,-0.37109375,9.8125,0.52734375,0.005859375,0.00390625,0.0,0.65960693359375,0.19146728515625,0.177001953125,0.7049560546875,86.77384891484097,1.5122283958496956,-5.241457363369028
260,10.440055869999924,bno085,-0.33203125,9.8125,0.52734375,0.00390625,0.00390625,0.001953125,0.65972900390625,0.19158935546875,0.177001953125,0.70477294921875,86.79744411799766,1.515668543519296,-5.231677142792928
261,10.480054741000004,bno085,-0.37109375,9.8125,0.52734375,0.00390625,0.00390625,0.001953125,0.659912109375,0.19171142578125,0.1771240234375,0.70452880859375,86.83033541001086,1.5072258777978567,-5.210793033644999
262,10.520054816000084,bno085,-0.37109375,9.8125,0.52734375,-0.00390625,0.0078125,0.00390625,0.65997314453125,0.19183349609375,0.17724609375,0.7044677734375,86.84502463175404,1.5051349671232892,-5.189010095556903
263,10.560055316000216,bno085,-0.37109375,9.8125,0.48828125,-0.013671875,0.00390625,0.0,0.65985107421875,0.19189453125,0.1773681640625,0.70452880859375,86.82903387144073,1.5046616900587368,-5.173901446719557
264,10.600055297999916,bno085,-0.37109375,9.8125,0.52734375,-0.0078125,-0.0078125,0.0,0.65985107421875,0.19189453125,0.1773681640625,0.70452880859375,86.82903387144073,1.5046616900587368,-5.173901446719557
265,10.640054743000292,bno085,-0.33203125,9.8125,0.52734375,-0.076171875,0.009765625,-0.00390625,0.6595458984375,0.1917724609375,0.1773681640625,0.704833984375,86.77745545727856,1.507749501817307,-5.185016657707292
266,10.680054744000245,bno085,-0.33203125,9.8125,0.52734375,-0.076171875,0.009765625,-0.00390625,0.65814208984375,0.1915283203125,0.177734375,0.7060546875,86.55383561381794,1.515875432328059,-5.178434664971369
267,10.720055078000314,bno085,-0.41015625,9.7734375,0.6796875,-0.138671875,-0.001953125,-0.00390625,0.6553955078125,0.191162109375,0.178466796875,0.70855712890625,86.1230357472158,1.5419272818260634,-5.151880802348742
268,10.760055208000267,bno085,-0.33203125,9.77734375,0.64453125,0.009765625,-0.06640625,0.001953125,0.6541748046875,0.19012451171875,0.1781005859375,0.71002197265625,85.89481910245742,1.5421135853056063,-5.272452105976751
269,10.800055523000083,bno085,-0.33203125,9.85546875,0.60546875,-0.232421875,-0.017578125,-0.0078125,0.6541748046875,0.19012451171875,0.1781005859375,0.71002197265625,85.89481910245742,1.5421135853056063,-5.272452105976751
270,10.840054653000152,bno085,-0.37109375,9.69921875,0.94921875,-0.1953125,-0.04296875,-0.0078125,0.65032958984375,0.18890380859375,0.17864990234375,0.71380615234375,85.26568264360323,1.5621226574274616,-5.33328717023964
271,10.880055469000126,bno085,-0.37109375,9.73828125,0.98828125,-0.1953125,-0.04296875,-0.0078125,0.64666748046875,0.187255859375,0.1787109375,0.717529296875,84.64879321460597,1.577746171000172,-5.471656167450114
272,10.920054914000048,bno085,-0.37109375,9.77734375,0.91015625,-0.1171875,-0.03515625,-0.005859375,0.64471435546875,0.18609619140625,0.178466796875,0.7196044921875,84.30919807998299,1.584817665699055,-5.592627939637335
273,10.960055729000032,bno085,-0.41015625,9.73828125,0.98828125,-0.138671875,-0.05859375,-0.009765625,0.64276123046875,0.184814453125,0.17816162109375,0.7218017578125,83.96622708629728,1.5880268918481648,-5.7269258341176466
274,11.000055933000112,bno085,-0.37109375,9.7734375,1.06640625,-0.19921875,-0.08984375,-0.01953125,0.64276123046875,0.184814453125,0.17816162109375,0.7218017578125,83.96622708629728,1.5880268918481648,-5.7269258341176466
275,11.040055286000097,bno085,-0.37109375,9.73828125,1.1015625,-0.29296875,-0.078125,-0.021484375,0.6400146484375,0.1829833984375,0.17755126953125,0.724853515625,83.48410768793875,1.6014905538129314,-5.934656737374775
276,11.080056231000071,bno085,-0.37109375,9.69921875,1.1796875,-0.29296875,-0.078125,-0.021484375,0.63580322265625,0.18072509765625,0.17730712890625,0.7291259765625,82.7702827006351,1.6060591131275412,-6.148135136903746
277,11.120062509000036,bno085,-0.37109375,9.6953125,1.37109375,-0.1875,-0.1328125,-0.021484375,0.63299560546875,0.17767333984375,0.17559814453125,0.73272705078125,82.23576900565011,1.605584939984584,-6.548535911610579
278,11.160056324999914,bno085,-0.37109375,9.65625,1.44921875,-0.16015625,-0.091796875,-0.013671875,0.6304931640625,0.17523193359375,0.17413330078125,0.73577880859375,81.77266251243339,1.6183254940031548,-6.8781463296024175
279,11.20005552900011,bno085,-0.37109375,9.65625,1.44921875,-0.052734375,-0.021484375,-0.009765625,0.6304931640625,0.17523193359375,0.17413330078125,0.73577880859375,81.77266251243339,1.6183254940031548,-6.8781463296024175
280,11.240054493000116,bno085,-0.37109375,9.65625,1.484375,0.009765625,-0.013671875,0.005859375,0.629638671875,0.17413330078125,0.17327880859375,0.73699951171875,81.60525817221907,1.6288011003754608,-7.0421808031343
281,11.280054715999995,bno085,-0.37109375,9.69921875,1.44921875,0.009765625,-0.013671875,0.005859375,0.62994384765625,0.17364501953125,0.17303466796875,0.7369384765625,81.6311973005989,1.5978676616854188,-7.100934683626601
282,11.320055234999927,bno085,-0.37109375,9.6953125,1.41015625,0.00390625,-0.01171875,0.021484375,0.6304931640625,0.173095703125,0.17333984375,0.736572265625,81.69048568825393,1.5111312878931704,-7.114630769822987
283,11.360055773000113,bno085,-0.33203125,9.66015625,1.41015625,0.01171875,0.0078125,0.03515625,0.63092041015625,0.17266845703125,0.17413330078125,0.736083984375,81.73563263130264,1.399535759338369,-7.077081174303687
284,11.400056329000108,bno085,-0.33203125,9.65625,1.5234375,0.107421875,0.01171875,0.05859375,0.63092041015625,0.17266845703125,0.17413330078125,0.736083984375,81.73563263130264,1.399535759338369,-7.077081174303687
285,11.440054830000008,bno085,-0.33203125,9.73828125,1.33203125,0.185546875,0.080078125,0.103515625,0.6329345703125,0.17242431640625,0.1748046875,0.7342529296875,82.02098034176315,1.2537690448231806,-7.031943421397245
286,11.480054553000173,bno085,-0.25390625,9.73828125,1.21875,0.185546875,0.080078125,0.103515625,0.63677978515625,0.17303466796875,0.1768798828125,0.73028564453125,82.60890400293995,0.997751194496619,-6.791921719949701
287,11.520054738999988,bno085,-0.21484375,9.8125,1.1015625,0.125,0.16796875,0.146484375,0.640380859375,0.174560546875,0.18157958984375,0.7255859375,83.19697460675053,0.613213428985501,-6.25014336955986
288,11.560054572999888,bno085,-0.1796875,9.6953125,1.1796875,0.001953125,0.001953125,0.05859375,0.64141845703125,0.1739501953125,0.1832275390625,0.724365234375,83.32510839425514,0.3953568450083969,-6.152327179618778
289,11.600054684000042,bno085,-0.140625,9.73828125,1.1796875,-0.072265625,-0.107421875,-0.01171875,0.64141845703125,0.1739501953125,0.1832275390625,0.724365234375,83.32510839425514,0.3953568450083969,-6.152327179618778
290,11.640054537000196,bno085,-0.1015625,9.69921875,1.1796875,-0.005859375,-0.072265625,-0.060546875,0.64105224609375,0.1719970703125,0.18157958984375,0.7255859375,83.1961045220904,0.38616845595618304,-6.452571920302453
291,11.680055278000054,bno085,-0.21484375,9.7734375,1.1796875,-0.005859375,-0.072265625,-0.060546875,0.640869140625,0.1712646484375,0.179443359375,0.7264404296875,83.14211458769726,0.502886699005806,-6.699523252912955
292,11.720054798000092,bno085,-0.21484375,9.7734375,1.1796875,-0.01171875,-0.0546875,0.009765625,0.6407470703125,0.1700439453125,0.1785888671875,0.72711181640625,83.07833610746286,0.4796446801012952,-6.870363596744307
293,11.760055132000161,bno085,-0.140625,9.69921875,1.21875,-0.0234375,-0.044921875,0.03125,0.6405029296875,0.16864013671875,0.17864990234375,0.72760009765625,82.98825653372984,0.37270256566533216,-6.976706576875142
294,11.800054947000262,bno085,-0.1796875,9.69921875,1.21875,-0.015625,-0.01171875,0.015625,0.6405029296875,0.16864013671875,0.17864990234375,0.72760009765625,82.98825653372984,0.37270256566533216,-6.976706576875142
295,11.840054837000025,bno085,-0.21484375,9.73828125,1.2578125,0.03125,-0.01171875,0.146484375,0.64031982421875,0.16796875,0.17877197265625,0.7279052734375,82.93578205634685,0.31739799182888784,-7.018673686789407
296,11.880054597000253,bno085,-0.1796875,9.890625,1.1015625,0.03125,-0.01171875,0.146484375,0.641357421875,0.165771484375,0.18115234375,0.7269287109375,83.00508246893571,-0.08067289172437789,-6.979839734686355
297,11.920054670999889,bno085,-0.0625,9.81640625,1.140625,-0.2421875,-0.048828125,0.33984375,0.63983154296875,0.15911865234375,0.18707275390625,0.72821044921875,82.52910173857725,-1.0139087375966864,-6.975955413441848
298,11.960054931000286,bno085,0.16796875,9.66015625,1.5234375,0.23828125,-0.294921875,0.03515625,0.64239501953125,0.1534423828125,0.1846923828125,0.727783203125,82.71003706439704,-1.3744149118755684,-7.6304179407175825
299,12.000054765000186,bno085,0.28125,9.69921875,1.5234375,0.10546875,-0.236328125,-0.09375,0.64239501953125,0.1534423828125,0.1846923828125,0.727783203125,82.71003706439704,-1.3744149118755684,-7.6304179407175825
300,12.040055302999917,bno085,0.16796875,9.65625,1.41015625,0.17578125,-0.03125,-0.056640625,0.64373779296875,0.15081787109375,0.17919921875,0.728515625,82.82449182370343,-1.2033068791753798,-8.322286686418984
301,12.080055971000093,bno085,0.05078125,9.73828125,1.21875,0.17578125,-0.03125,-0.056640625,0.64495849609375,0.151611328125,0.17694091796875,0.727783203125,83.0351311954325,-1.0078771744566222,-8.461671946325911
302,12.120062620000226,bno085,0.05078125,9.734375,1.140625,0.076171875,-0.04296875,-0.068359375,0.64599609375,0.152587890625,0.17474365234375,0.72723388671875,83.22578275975827,-0.7942665629783087,-8.5788503261147
303,12.16005556500022,bno085,0.01171875,9.6953125,1.1796875,0.03515625,-0.009765625,-0.078125,0.6463623046875,0.1536865234375,0.1729736328125,0.72711181640625,83.32008018200332,-0.581024873556204,-8.648556385281031
304,12.200056102999952,bno085,-0.0234375,9.73828125,1.140625,0.041015625,0.021484375,-0.05859375,0.6463623046875,0.1536865234375,0.1729736328125,0.72711181640625,83.32008018200332,-0.581024873556204,-8.648556385281031
305,12.240055029999894,bno085,-0.0625,9.734375,1.140625,0.0078125,0.001953125,-0.046875,0.64697265625,0.15521240234375,0.17193603515625,0.72650146484375,83.46530538324808,-0.39993853633708043,-8.619867953443055
306,12.280054974999985,bno085,-0.0625,9.734375,1.140625,0.0078125,0.001953125,-0.046875,0.64715576171875,0.15631103515625,0.171142578125,0.72625732421875,83.53159448017098,-0.2576396815539531,-8.603731727875829
307,12.320054402000096,bno085,-0.1015625,9.734375,1.140625,0.041015625,0.013671875,-0.04296875,0.64752197265625,0.15728759765625,0.1702880859375,0.7259521484375,83.62174107281695,-0.12564088742918172,-8.601125404763069
308,12.360054606000176,bno085,-0.1015625,9.73828125,1.1015625,0.037109375,0.009765625,-0.05078125,0.64801025390625,0.15838623046875,0.16949462890625,0.7254638671875,83.73437154054072,0.006268183584564509,-8.583730161984876
309,12.40005458900032,bno085,-0.140625,9.73828125,1.06640625,0.01953125,0.0078125,-0.0390625,0.64801025390625,0.15838623046875,0.16949462890625,0.7254638671875,83.73437154054072,0.006268183584564509,-8.583730161984876
310,12.44005455300021,bno085,-0.140625,9.73828125,1.06640625,0.013671875,0.0,-0.009765625,0.64837646484375,0.15924072265625,0.16900634765625,0.72503662109375,83.81981148367798,0.09866120364732317,-8.559183248028218
311,12.480054646000099,bno085,-0.140625,9.734375,1.1015625,0.013671875,0.0,-0.009765625,0.6484375,0.15948486328125,0.16876220703125,0.7249755859375,83.83780004188816,0.13479598712243918,-8.561364250336512
312,12.520054536000316,bno085,-0.140625,9.77734375,1.06640625,0.021484375,0.01171875,0.0078125,0.6488037109375,0.15972900390625,0.16876220703125,0.724609375,83.90146415786398,0.14127264810189427,-8.541478073793341
313,12.560055203000047,bno085,-0.140625,9.73828125,1.06640625,0.0078125,0.001953125,0.001953125,0.64898681640625,0.1597900390625,0.16876220703125,0.72442626953125,83.9310081147979,0.1394440532579263,-8.536589637082953
314,12.600054630000159,bno085,-0.140625,9.734375,1.02734375,-0.013671875,-0.01171875,-0.013671875,0.64898681640625,0.1597900390625,0.16876220703125,0.72442626953125,83.9310081147979,0.1394440532579263,-8.536589637082953
315,12.640054297999995,bno085,-0.1015625,9.734375,1.06640625,0.0078125,0.00390625,0.013671875,0.6488037109375,0.15972900390625,0.1685791015625,0.72467041015625,83.90175482721689,0.15601251952359593,-8.557175334150502
316,12.680054410000139,bno085,-0.140625,9.7734375,1.02734375,0.0078125,0.00390625,0.013671875,0.64892578125,0.15948486328125,0.1689453125,0.7244873046875,83.91062867450577,0.10279857338365049,-8.545091748515695
317,12.720054373000039,bno085,-0.140625,9.77734375,1.06640625,-0.033203125,-0.001953125,0.009765625,0.64849853515625,0.15924072265625,0.16925048828125,0.724853515625,83.83773634663056,0.0747964043217985,-8.538013381970352
318,12.760056170000098,bno085,-0.1015625,9.734375,1.06640625,-0.015625,0.0,0.005859375,0.64813232421875,0.15899658203125,0.16949462890625,0.72515869140625,83.77389382752904,0.04904712185813779,-8.536535048618864
319,12.800055189999966,bno085,-0.1796875,9.77734375,1.140625,-0.015625,0.001953125,0.0078125,0.64813232421875,0.15899658203125,0.16949462890625,0.72515869140625,83.77389382752904,0.04904712185813779,-8.536535048618864
320,12.840054541999962,bno085,-0.1015625,9.7734375,1.06640625,0.072265625,0.072265625,0.142578125,0.6480712890625,0.15869140625,0.16986083984375,0.7252197265625,83.75378272960081,-0.0012276925175819377,-8.52816598873654
321,12.88005417300019,bno085,-0.0234375,9.734375,1.02734375,0.072265625,0.072265625,0.142578125,0.64947509765625,0.15789794921875,0.1727294921875,0.72344970703125,83.93309284336925,-0.34019292885257785,-8.339060825607154
322,12.920054526000058,bno085,0.01171875,9.734375,1.02734375,0.06640625,0.064453125,0.130859375,0.65087890625,0.1573486328125,0.17578125,0.72161865234375,84.12166066454819,-0.6743031372210051,-8.114314925089941
323,12.960054545000276,bno085,0.05078125,9.73828125,1.02734375,-0.02734375,0.009765625,0.05078125,0.65069580078125,0.15667724609375,0.1771240234375,0.7215576171875,84.06886825004297,-0.8274397436822972,-8.05045479538575
324,13.00005804600005,bno085,0.01171875,9.77734375,1.06640625,0.0234375,0.013671875,0.0859375,0.65069580078125,0.15667724609375,0.1771240234375,0.7215576171875,84.06886825004297,-0.8274397436822972,-8.05045479538575
325,13.040057269000044,bno085,0.08984375,9.734375,1.02734375,-0.005859375,-0.041015625,0.1015625,0.65106201171875,0.15570068359375,0.17840576171875,0.72113037109375,84.08823368113066,-1.0188941398416587,-8.015164300529792
326,13.080058252000072,bno085,0.12890625,9.81640625,0.98828125,-0.005859375,-0.041015625,0.1015625,0.6514892578125,0.153564453125,0.1796875,0.72088623046875,84.07650918484867,-1.3041153532053662,-8.071282620130878
327,13.120064493999962,bno085,0.203125,9.7734375,1.06640625,-0.087890625,-0.056640625,0.16796875,0.651123046875,0.14935302734375,0.18212890625,0.72149658203125,83.87478579181747,-1.816162296207439,-8.186773888392143
328,13.160057643000073,bno085,0.2421875,9.77734375,1.02734375,-0.146484375,-0.005859375,0.203125,0.64996337890625,0.14544677734375,0.18603515625,0.72235107421875,83.56590649714735,-2.3918340829445817,-8.145149844567571
329,13.200070348000281,bno085,0.359375,9.734375,1.140625,-0.1796875,-0.087890625,0.16796875,0.64849853515625,0.140625,0.18890380859375,0.723876953125,83.18587280210893,-2.9485949515563803,-8.261468409000742
330,13.240057404000254,bno085,0.39453125,9.73828125,1.21875,-0.306640625,-0.19140625,0.150390625,0.64849853515625,0.140625,0.18890380859375,0.723876953125,83.18587280210893,-2.9485949515563803,-8.261468409000742
331,13.280057868000313,bno085,0.47265625,9.69921875,1.29296875,-0.306640625,-0.19140625,0.150390625,0.64495849609375,0.1337890625,0.18927001953125,0.72821044921875,82.44158882735938,-3.3997575265250064,-8.743189597430334
332,13.320058295000308,bno085,0.55078125,9.73828125,1.41015625,-0.33203125,-0.23046875,0.14453125,0.64031982421875,0.1251220703125,0.189453125,0.73382568359375,81.49293378531046,-3.9553031808530417,-9.366275404402403
333,13.360059054999965,bno085,0.6640625,9.85546875,1.484375,-0.4921875,-0.373046875,0.513671875,0.6326904296875,0.109619140625,0.1939697265625,0.74163818359375,79.92873979373427,-5.325709768670786,-10.07758147630876
334,13.400057612000182,bno085,0.81640625,9.55078125,1.640625,-0.427734375,-0.373046875,0.369140625,0.6326904296875,0.109619140625,0.1939697265625,0.74163818359375,79.92873979373427,-5.325709768670786,-10.07758147630876
335,13.440057927999987,bno085,1.125,9.58984375,2.0234375,-0.908203125,-0.24609375,0.5546875,0.6256103515625,0.0950927734375,0.19683837890625,0.74884033203125,78.52180875303542,-6.534623572695669,-10.829138911844836
336,13.480057484000099,bno085,1.31640625,9.203125,2.3671875,-0.45703125,-0.166015625,0.27734375,0.6142578125,0.0789794921875,0.2020263671875,0.75872802734375,76.49637321206941,-7.945256481306128,-11.402385292554612
337,13.520057447999989,bno085,1.5078125,9.31640625,2.55859375,-0.45703125,-0.166015625,0.27734375,0.60589599609375,0.0675048828125,0.20648193359375,0.76531982421875,75.04243378337576,-9.017588706155303,-11.701590307892022
338,13.5600580790001,bno085,1.46875,9.16796875,2.55859375,-0.740234375,-0.220703125,0.1328125,0.59588623046875,0.057861328125,0.20733642578125,0.773681640625,73.42439329229603,-9.636029557334462,-12.17180950805228
339,13.600056876000053,bno085,1.546875,9.27734375,2.7890625,-0.576171875,-0.384765625,0.287109375,0.59588623046875,0.057861328125,0.20733642578125,0.773681640625,73.42439329229603,-9.636029557334462,-12.17180950805228
340,13.64005678500007,bno085,1.73828125,9.08984375,3.01953125,-0.52734375,-0.578125,0.7109375,0.5863037109375,0.04486083984375,0.207763671875,0.78167724609375,71.83972241555318,-10.560582963006437,-12.8889495878597
341,13.680058360000203,bno085,2.00390625,8.890625,3.2109375,-0.52734375,-0.578125,0.7109375,0.57647705078125,0.021240234375,0.21368408203125,0.78839111328125,70.08644063474443,-12.858922338703142,-13.718771943447782
342,13.72005802700005,bno085,1.96875,8.51171875,3.4765625,-0.556640625,-0.4453125,0.4765625,0.5709228515625,0.00067138671875,0.2166748046875,0.7918701171875,69.0640031964193,-14.827997716634801,-14.649403581469294
343,13.760058714000024,bno085,2.80859375,8.97265625,3.171875,-0.357421875,-0.626953125,0.404296875,0.5665283203125,-0.01806640625,0.21575927734375,0.79510498046875,68.3141592342359,-16.418134710615277,-15.844715023718956
344,13.800057233000189,bno085,2.92578125,8.74609375,3.5546875,-1.294921875,-0.033203125,0.8203125,0.5665283203125,-0.01806640625,0.21575927734375,0.79510498046875,68.3141592342359,-16.418134710615277,-15.844715023718956
345,13.840056011999877,bno085,3.1171875,8.05078125,3.74609375,-0.419921875,-0.650390625,1.45703125,0.55352783203125,-0.04705810546875,0.22357177734375,0.80084228515625,66.27871631453652,-19.40003988720891,-16.586992253581638
346,13.880056939000042,bno085,4.37890625,8.1640625,4.16796875,-1.697265625,-0.4140625,2.560546875,0.5498046875,-0.08709716796875,0.23895263671875,0.795654296875,65.62028154985711,-24.222638671214362,-17.371838271981925
347,13.920058440000048,bno085,4.53515625,7.13671875,3.82421875,-1.697265625,-0.4140625,2.560546875,0.522705078125,-0.14013671875,0.27105712890625,0.79608154296875,61.43084597157133,-30.99169347610187,-16.17447502379574
348,13.960056756000085,bno085,5.72265625,5.98828125,4.2421875,-1.03125,-1.2890625,4.375,0.490234375,-0.22454833984375,0.3291015625,0.77520751953125,55.765572524571624,-42.69999364186847,-12.460419245815103
349,14.000057237999954,bno085,5.68359375,5.29296875,5.046875,3.64453125,-1.353515625,3.751953125,0.490234375,-0.22454833984375,0.3291015625,0.77520751953125,55.765572524571624,-42.69999364186847,-12.460419245815103
350,14.040060517000256,bno085,8.5546875,4.18359375,2.09765625,0.78515625,-2.333984375,2.048828125,0.521728515625,-0.2755126953125,0.396240234375,0.7034912109375,59.583901322045364,-53.809229918654175,-8.657244581944026
351,14.080057889000273,bno085,9.2421875,3.41796875,1.640625,0.78515625,-2.333984375,2.048828125,0.540771484375,-0.32696533203125,0.41046142578125,0.65740966796875,65.73539649794624,-61.47566536330832,-13.078159969039147
352,14.120059296999898,bno085,9.01953125,3.9921875,1.484375,-0.76953125,-1.197265625,0.42578125,0.53546142578125,-0.36248779296875,0.40032958984375,0.64935302734375,68.32256913275364,-64.64561156675877,-18.161658800599824
353,14.160057558000062,bno085,8.98046875,3.4921875,1.5625,-1.05859375,-1.162109375,0.28125,0.52972412109375,-0.39093017578125,0.38232421875,0.64837646484375,71.55897333496237,-66.32267813638336,-24.384907808323547
354,14.200058392000301,bno085,9.125,3.33984375,1.06640625,-0.5859375,-0.783203125,0.560546875,0.52972412109375,-0.39093017578125,0.38232421875,0.64837646484375,71.55897333496237,-66.32267813638336,-24.384907808323547
355,14.24005874500017,bno085,9.32421875,3.1484375,1.29296875,-0.369140625,-0.33984375,-0.12109375,0.51983642578125,-0.41412353515625,0.37335205078125,0.647216796875,72.85443853650088,-68.07628936542011,-28.046857795201525
356,14.280057024000143,bno085,9.1640625,3.30078125,1.41015625,-0.369140625,-0.33984375,-0.12109375,0.51409912109375,-0.4241943359375,0.3604736328125,0.65252685546875,73.70565413949734,-68.07112055523628,-30.894059495560654
357,14.32005826600016,bno085,9.01953125,3.609375,0.94921875,-1.294921875,-0.138671875,-0.4765625,0.50115966796875,-0.43408203125,0.334716796875,0.66961669921875,73.12045059356396,-66.96438871280613,-34.188818845085585
358,14.360058767000282,bno085,9.09375,3.33984375,1.37109375,-1.220703125,0.0078125,-0.373046875,0.48626708984375,-0.44000244140625,0.3143310546875,0.6864013671875,71.0461382591984,-65.95907609948031,-35.5787823663226
359,14.400058343000183,bno085,8.94140625,3.4921875,1.41015625,-0.951171875,-0.060546875,-0.494140625,0.48626708984375,-0.44000244140625,0.3143310546875,0.6864013671875,71.0461382591984,-65.95907609948031,-35.5787823663226
360,14.440057177000199,bno085,8.4765625,4.0703125,1.9453125,-1.578125,0.3359375,0.6171875,0.473388671875,-0.44110107421875,0.295654296875,0.7027587890625,68.80799467242927,-64.63662153352132,-36.322384784052474
361,14.480057881999983,bno085,8.98046875,3.1875,2.328125,-1.578125,0.3359375,0.6171875,0.4437255859375,-0.44989013671875,0.2864990234375,0.72015380859375,62.83701322856081,-64.9517552641149,-34.241439442943715
362,14.520059143000253,bno085,9.015625,3.03515625,2.40625,-0.8203125,0.076171875,0.2421875,0.426025390625,-0.45733642578125,0.2818603515625,0.72796630859375,59.5667348812022,-65.45965556502784,-33.21345930088056
363,14.560059217999878,bno085,8.9765625,3.07421875,2.328125,-0.451171875,-0.193359375,-0.185546875,0.4202880859375,-0.46209716796875,0.27227783203125,0.73187255859375,59.56050796675437,-65.35959260667057,-34.67554479166389
364,14.600057922999895,bno085,8.59375,3.609375,2.51953125,-0.08984375,-0.3515625,0.076171875,0.4202880859375,-0.46209716796875,0.27227783203125,0.73187255859375,59.56050796675437,-65.35959260667057,-34.67554479166389
365,14.640060961000017,bno085,8.67578125,3.2265625,1.5625,0.34765625,-1.001953125,1.408203125,0.4197998046875,-0.469970703125,0.269287109375,0.728271484375,60.88697327715939,-66.07898449643342,-36.42192187516409
366,14.680057609999949,bno085,8.8984375,3.33984375,0.60546875,0.34765625,-1.001953125,1.408203125,0.4151611328125,-0.49725341796875,0.28485107421875,0.70654296875,63.02832250617473,-70.39785992790556,-38.02691713902284
367,14.720059019000018,bno085,9.125,2.53515625,1.44921875,-0.25390625,-1.029296875,0.8359375,0.40191650390625,-0.531005859375,0.287109375,0.68853759765625,66.90206507411364,-74.6036413960305,-43.32303140499793
368,14.76005831600014,bno085,9.5859375,1.84765625,0.48828125,0.373046875,-0.78125,1.63671875,0.39471435546875,-0.55413818359375,0.3045654296875,0.6666259765625,70.4419272467331,-78.7310341410496,-46.195127038342726
369,14.80005720600002,bno085,9.12890625,1.2734375,0.375,0.966796875,-1.533203125,2.166015625,0.39471435546875,-0.55413818359375,0.3045654296875,0.6666259765625,70.4419272467331,-78.7310341410496,-46.195127038342726
370,14.84005837399991,bno085,10.28515625,0.390625,0.7578125,0.552734375,-2.3984375,1.169921875,0.39215087890625,-0.58636474609375,0.334228515625,0.62506103515625,92.40414576157627,-84.64523768635074,-65.88691938798978
371,14.880058115999873,bno085,9.93359375,0.19921875,-1.42578125,0.173828125,-2.0703125,0.17578125,0.406005859375,-0.62713623046875,0.33624267578125,0.57342529296875,162.82211531151648,-82.49467951737188,-134.75139535783927
372,14.920058636000249,bno085,9.859375,-0.296875,-2.0,0.173828125,-2.0703125,0.17578125,0.4222412109375,-0.6580810546875,0.3189697265625,0.53564453125,173.29285469146313,-76.54739777691007,-144.98509407702153
373,14.960056544000054,bno085,9.62890625,-0.03125,-2.53515625,-0.181640625,-1.0234375,0.193359375,0.42608642578125,-0.6741943359375,0.30816650390625,0.51861572265625,175.69058655458005,-73.666393950351,-147.82076355367406
374,15.000057379000282,bno085,9.51171875,0.0859375,-2.91796875,0.037109375,-0.2578125,0.1171875,0.42620849609375,-0.67950439453125,0.30584716796875,0.512939453125,176.83261932397087,-72.81622741723018,-149.10136700576066
375,15.040057583999896,bno085,9.51171875,0.0078125,-3.03515625,0.107421875,0.349609375,-0.021484375,0.42620849609375,-0.67950439453125,0.30584716796875,0.512939453125,176.83261932397087,-72.81622741723018,-149.10136700576066
376,15.080057622999902,bno085,9.5859375,-0.03125,-2.765625,0.107421875,0.349609375,-0.021484375,0.42559814453125,-0.6751708984375,0.30975341796875,0.51678466796875,176.6922527634627,-73.57882046483995,-148.7077162531038
377,15.12005993899993,bno085,9.58984375,0.12109375,-2.53515625,-0.03125,1.021484375,-0.140625,0.4210205078125,-0.66204833984375,0.31768798828125,0.532470703125,174.6580351989373,-76.08349340143515,-146.55825850891648
378,15.160056514000189,bno085,9.62890625,0.12109375,-1.80859375,0.01171875,1.068359375,-0.1171875,0.413818359375,-0.64642333984375,0.3267822265625,0.551513671875,171.27142016314784,-79.115809100721,-143.20554357357443
379,15.20005862700009,bno085,9.6640625,0.16015625,-1.46484375,-0.123046875,0.787109375,-0.111328125,0.413818359375,-0.64642333984375,0.3267822265625,0.551513671875,171.27142016314784,-79.115809100721,-143.20554357357443
380,15.240059258000201,bno085,9.703125,0.19921875,-1.1171875,0.10546875,0.51953125,-0.048828125,0.407470703125,-0.63433837890625,0.332275390625,0.56671142578125,166.45940541527952,-81.40201913168798,-138.571506071208
381,15.280059129000165,bno085,9.74609375,0.19921875,-0.8125,0.06640625,0.14453125,-0.03515625,0.4044189453125,-0.6258544921875,0.3375244140625,0.5751953125,162.53157258579478,-82.83253027218443,-134.50558735601965
382,15.320039223000094,bno085,9.7421875,0.23828125,-0.8125,0.06640625,0.14453125,-0.03515625,0.4044189453125,-0.623291015625,0.339111328125,0.5770263671875,161.04825921502,-83.16209825723884,-132.87627220237724
383,15.36005646500007,bno085,9.78515625,0.27734375,-0.890625,0.017578125,-0.029296875,0.01953125,0.40478515625,-0.62310791015625,0.3397216796875,0.57659912109375,161.32927730730827,-83.16573579580721,-133.0605703492249
384,15.40005737399997,bno085,9.74609375,0.12109375,-0.92578125,0.013671875,0.06640625,-0.05078125,0.40496826171875,-0.62158203125,0.34027099609375,0.57781982421875,160.0546917892292,-83.32733252512534,-131.73272257580123
385,15.440055486999881,bno085,9.78515625,0.27734375,-0.890625,0.0546875,0.109375,-0.05078125,0.40496826171875,-0.62158203125,0.34027099609375,0.57781982421875,160.0546917892292,-83.32733252512534,-131.73272257580123
386,15.480057450999993,bno085,9.78125,0.3125,-0.8515625,0.009765625,0.076171875,0.0078125,0.40545654296875,-0.61907958984375,0.3411865234375,0.57958984375,157.88170850568167,-83.56635829010781,-129.42019715481507
387,15.520057767000253,bno085,9.8203125,0.23828125,-0.890625,0.009765625,0.076171875,0.0078125,0.40472412109375,-0.6175537109375,0.342529296875,0.5809326171875,157.07499293380272,-83.83906488922901,-128.5630713245987
388,15.560057230999973,bno085,9.8203125,0.23828125,-0.734375,0.04296875,0.27734375,-0.001953125,0.40313720703125,-0.61419677734375,0.34503173828125,0.5841064453125,154.62853508062906,-84.41018465493103,-126.04766737524628
389,15.600057029000254,bno085,9.82421875,0.27734375,-0.66015625,0.0390625,0.212890625,0.0234375,0.4013671875,-0.61151123046875,0.34722900390625,0.58685302734375,152.4253153525082,-84.91401973064559,-123.82654884239112
390,15.640056401000038,bno085,9.82421875,0.27734375,-0.66015625,-0.052734375,0.041015625,0.08203125,0.4013671875,-0.61151123046875,0.34722900390625,0.58685302734375,152.4253153525082,-84.91401973064559,-123.82654884239112
391,15.68005571699996,bno085,9.86328125,0.0859375,-0.69921875,0.06640625,0.095703125,-0.0703125,0.39892578125,-0.61199951171875,0.34771728515625,0.5877685546875,153.4044643950968,-85.13192098007292,-125.0232745273371
392,15.720055199999933,bno085,9.97265625,0.3515625,-0.19921875,0.06640625,0.095703125,-0.0703125,0.399169921875,-0.60986328125,0.3489990234375,0.5889892578125,151.13759470729264,-85.3468131635589,-122.58097670230991
393,15.760055312000077,bno085,9.78125,0.12109375,-0.5078125,-0.685546875,2.09375,-0.060546875,0.3853759765625,-0.595947265625,0.3546142578125,0.6087646484375,111.09010806576795,-87.46277363711332,-83.35965726415002
394,15.800058443000125,bno085,9.8203125,0.3515625,0.0703125,-0.130859375,0.33203125,0.033203125,0.38671875,-0.59808349609375,0.35400390625,0.60614013671875,119.93456578954968,-87.34696895745374,-92.13619672888423
395,15.84005525900011,bno085,9.890625,0.19921875,-0.27734375,-0.041015625,-0.046875,0.01953125,0.38671875,-0.59808349609375,0.35400390625,0.60614013671875,119.93456578954968,-87.34696895745374,-92.13619672888423
396,15.880057409000074,bno085,9.890625,0.23828125,-0.19921875,-0.005859375,-0.0234375,0.0,0.38623046875,-0.599609375,0.3531494140625,0.60546875,123.7242822219817,-87.31488779987683,-96.05447809435039
397,15.920055224999942,bno085,9.89453125,0.19921875,-0.19921875,-0.005859375,-0.0234375,0.0,0.3848876953125,-0.598876953125,0.3533935546875,0.60693359375,119.8287824779935,-87.44285343789967,-92.2640000450569
398,15.960054836999916,bno085,9.859375,0.23828125,-0.0859375,-0.0078125,0.087890625,-0.017578125,0.38397216796875,-0.597412109375,0.35406494140625,0.6085205078125,113.87184942989003,-87.55240365588078,-86.33269030129716
399,16.00005519100023,bno085,9.859375,0.23828125,-0.0859375,-0.021484375,0.048828125,0.01171875,0.38323974609375,-0.5970458984375,0.3543701171875,0.60919189453125,111.61857947378859,-87.62187301534668,-84.11402337836454
400,16.04005508099999,bno085,9.89453125,0.23828125,-0.0859375,-0.033203125,0.052734375,-0.0078125,0.38323974609375,-0.5970458984375,0.3543701171875,0.60919189453125,111.61857947378859,-87.62187301534668,-84.11402337836454
401,16.080054934000145,bno085,9.86328125,0.23828125,-0.046875,-0.01953125,0.0546875,0.001953125,0.38226318359375,-0.596435546875,0.3544921875,0.6103515625,107.74505024489535,-87.67902135608578,-80.3115312356834
402,16.120058213999982,bno085,9.859375,0.23828125,-0.0078125,-0.01953125,0.0546875,0.001953125,0.3812255859375,-0.59564208984375,0.3548583984375,0.61151123046875,103.03386315609478,-87.74533322956712,-75.68526090527035
403,16.160059400000137,bno085,9.859375,0.23828125,0.03125,-0.025390625,0.0703125,-0.01171875,0.38031005859375,-0.5947265625,0.35516357421875,0.61279296875,97.84734547813528,-87.77391066939641,-70.55854884235492
404,16.200059180000153,bno085,9.859375,0.23828125,0.03125,-0.00390625,0.015625,-0.001953125,0.37982177734375,-0.59442138671875,0.35528564453125,0.61334228515625,95.71215151396811,-87.78981617225146,-68.44216810720128
405,16.240057533000254,bno085,9.859375,0.23828125,0.03125,-0.009765625,0.021484375,0.00390625,0.37982177734375,-0.59442138671875,0.35528564453125,0.61334228515625,95.71215151396811,-87.78981617225146,-68.44216810720128
406,16.28005892300007,bno085,9.859375,0.23828125,0.03125,-0.009765625,0.037109375,-0.009765625,0.37884521484375,-0.595703125,0.35595703125,0.6123046875,98.86647640839298,-87.98833900671679,-71.63521616749284
407,16.32005836899998,bno085,9.86328125,0.23828125,0.0703125,-0.009765625,0.037109375,-0.009765625,0.37823486328125,-0.5958251953125,0.3563232421875,0.6123046875,98.13836206514678,-88.06542333689814,-70.96790168011519
408,16.360057166999923,bno085,9.86328125,0.23828125,0.0703125,-0.025390625,0.03515625,0.005859375,0.3773193359375,-0.595703125,0.3565673828125,0.61285400390625,95.4636768557455,-88.12806470101307,-68.35502678857816
409,16.400057835000098,bno085,9.890625,0.23828125,0.0703125,-0.048828125,0.099609375,-0.013671875,0.37567138671875,-0.5948486328125,0.356689453125,0.6146240234375,87.53002837143752,-88.14651495011856,-60.57314961946891
410,16.440057318000072,bno085,9.859375,0.23828125,0.14453125,-0.02734375,0.119140625,-0.015625,0.37567138671875,-0.5948486328125,0.356689453125,0.6146240234375,87.53002837143752,-88.14651495011856,-60.57314961946891
411,16.480059171999983,bno085,9.859375,0.23828125,0.18359375,-0.00390625,0.05859375,-0.009765625,0.3741455078125,-0.5933837890625,0.3572998046875,0.61663818359375,77.49967454768962,-88.10532432242785,-50.59974640958558
412,16.520057895000264,bno085,9.86328125,0.27734375,0.26171875,-0.00390625,0.05859375,-0.009765625,0.37347412109375,-0.59246826171875,0.3577880859375,0.61767578125,72.26687088678126,-88.05649345219203,-45.33005819967734
413,16.5600587859999,bno085,9.86328125,0.27734375,0.22265625,0.017578125,-0.0234375,0.001953125,0.37347412109375,-0.59271240234375,0.35809326171875,0.61724853515625,72.76599534364848,-88.11340402052866,-45.82597805795876
414,16.600058397999874,bno085,9.859375,0.23828125,0.18359375,0.013671875,0.0,0.0,0.37347412109375,-0.59283447265625,0.35845947265625,0.616943359375,72.85561897225057,-88.15967114796233,-45.84007815056505
415,16.640057622000313,bno085,9.859375,0.27734375,0.18359375,0.00390625,0.033203125,-0.005859375,0.37347412109375,-0.59283447265625,0.35845947265625,0.616943359375,72.85561897225057,-88.15967114796233,-45.84007815056505
416,16.680057587000192,bno085,9.86328125,0.27734375,0.22265625,-0.001953125,-0.005859375,0.009765625,0.3731689453125,-0.5924072265625,0.35894775390625,0.61724853515625,70.13066750623253,-88.15592213078381,-43.10551574799234
417,16.72005749600021,bno085,9.86328125,0.23828125,0.22265625,-0.001953125,-0.005859375,0.009765625,0.372802734375,-0.592529296875,0.35919189453125,0.61724853515625,69.18177666334662,-88.19539641088393,-42.0989557703822
418,16.76005814500013,bno085,9.86328125,0.27734375,0.22265625,-0.005859375,-0.0078125,0.00390625,0.37249755859375,-0.5926513671875,0.35931396484375,0.6171875,68.46777612839381,-88.22669431235177,-41.50418920513204
419,16.80005879500004,bno085,9.859375,0.23828125,0.18359375,-0.009765625,-0.00390625,0.0,0.37225341796875,-0.5927734375,0.359375,0.6171875,68.02521158275584,-88.24959622273502,-41.06862370481185
420,16.840056630000163,bno085,9.86328125,0.27734375,0.22265625,-0.005859375,0.0234375,0.0,0.37225341796875,-0.5927734375,0.359375,0.6171875,68.02521158275584,-88.24959622273502,-41.06862370481185
421,16.880057502,bno085,9.86328125,0.27734375,0.26171875,0.0078125,-0.009765625,0.0,0.37188720703125,-0.59246826171875,0.359619140625,0.6175537109375,65.66636534179258,-88.23406434816464,-38.730592321191374
422,16.920059780999964,bno085,9.86328125,0.27734375,0.26171875,0.0078125,-0.009765625,0.0,0.37188720703125,-0.59259033203125,0.3597412109375,0.61737060546875,65.87428328774358,-88.26022888847257,-38.917010633958235
423,16.960058171000128,bno085,9.86328125,0.23828125,0.22265625,0.00390625,-0.041015625,0.005859375,0.37213134765625,-0.5931396484375,0.3597412109375,0.61669921875,68.37988066229352,-88.32887468903068,-41.392919344378534
424,17.00005867300024,bno085,9.86328125,0.27734375,0.22265625,0.009765625,-0.05078125,0.0078125,0.37249755859375,-0.59393310546875,0.359619140625,0.61578369140625,72.54445941505186,-88.41111469179555,-45.538195688614195
425,17.040059527000267,bno085,9.86328125,0.23828125,0.22265625,-0.009765625,-0.08203125,0.009765625,0.37249755859375,-0.59393310546875,0.359619140625,0.61578369140625,72.54445941505186,-88.41111469179555,-45.538195688614195
426,17.080058175999966,bno085,9.859375,0.23828125,0.14453125,-0.013671875,-0.087890625,0.021484375,0.37274169921875,-0.59527587890625,0.359130859375,0.61456298828125,79.41494507705244,-88.51569060567923,-52.54526240569516
427,17.120059159999983,bno085,9.890625,0.23828125,0.0703125,-0.013671875,-0.087890625,0.021484375,0.373046875,-0.59674072265625,0.35858154296875,0.61328125,88.11037670314492,-88.59606688622837,-61.24778427543144
428,17.160056698000062,bno085,9.890625,0.23828125,0.0703125,-0.001953125,-0.025390625,0.01171875,0.3729248046875,-0.5972900390625,0.35858154296875,0.61285400390625,90.7845315151819,-88.64610460103329,-63.881533567956005
429,17.200068126000133,bno085,9.86328125,0.23828125,0.10546875,-0.01953125,0.01171875,0.01171875,0.372314453125,-0.597412109375,0.35870361328125,0.613037109375,89.26993182299267,-88.69416617775074,-62.40986133082411
430,17.240057867999894,bno085,9.86328125,0.23828125,0.10546875,-0.001953125,0.015625,0.00390625,0.372314453125,-0.597412109375,0.35870361328125,0.613037109375,89.26993182299267,-88.69416617775074,-62.40986133082411
431,17.28005892500005,bno085,9.859375,0.23828125,0.14453125,0.001953125,-0.005859375,0.0078125,0.3719482421875,-0.5972900390625,0.35894775390625,0.61328125,87.1128117889448,-88.71965042067707,-60.18285520806723
432,17.320058149000033,bno085,9.859375,0.19921875,0.10546875,0.001953125,-0.005859375,0.0078125,0.37176513671875,-0.59735107421875,0.35919189453125,0.6131591796875,86.69011065692624,-88.75649324223112,-59.8082472267759
433,17.3600570399999,bno085,9.859375,0.23828125,0.14453125,-0.005859375,-0.009765625,0.00390625,0.37176513671875,-0.59747314453125,0.3592529296875,0.61297607421875,87.42187173114013,-88.77433470639326,-60.58686978013556
434,17.40005826400011,bno085,9.86328125,0.23828125,0.10546875,-0.005859375,-0.009765625,0.0,0.3717041015625,-0.59765625,0.35919189453125,0.61285400390625,88.33575536303181,-88.78778416705094,-61.54179238041781
435,17.440058154000326,bno085,9.86328125,0.23828125,0.10546875,-0.00390625,-0.005859375,-0.001953125,0.3717041015625,-0.59765625,0.35919189453125,0.61285400390625,88.33575536303181,-88.78778416705094,-61.54179238041781
436,17.48005848899993,bno085,9.86328125,0.23828125,0.10546875,-0.013671875,-0.00390625,-0.01953125,0.37164306640625,-0.59771728515625,0.359130859375,0.61285400390625,88.48431122893314,-88.79036706267448,-61.725760601748966
437,17.520059139000296,bno085,9.86328125,0.23828125,0.10546875,-0.013671875,-0.00390625,-0.01953125,0.3717041015625,-0.59771728515625,0.35888671875,0.613037109375,88.76714157525315,-88.76168008583755,-61.88795838083384
438,17.560057696000058,bno085,9.86328125,0.23828125,0.10546875,0.017578125,0.017578125,-0.001953125,0.3717041015625,-0.59747314453125,0.35906982421875,0.61309814453125,87.21468788527976,-88.760415922049,-60.44303320136962
439,17.600057217000085,bno085,9.890625,0.23828125,0.10546875,0.091796875,0.0546875,0.00390625,0.3724365234375,-0.59613037109375,0.3607177734375,0.613037109375,81.54056877236737,-88.75887323396988,-54.4608887203201
440,17.640056533000006,bno085,9.859375,0.23828125,0.18359375,0.091796875,0.08984375,-0.021484375,0.3724365234375,-0.59613037109375,0.3607177734375,0.613037109375,81.54056877236737,-88.75887323396988,-54.4608887203201
441,17.680058386999917,bno085,9.86328125,0.27734375,0.22265625,0.021484375,0.009765625,0.013671875,0.373291015625,-0.59368896484375,0.36260986328125,0.61376953125,70.99928912492074,-88.63674666755988,-43.65667904922752
442,17.720057739999902,bno085,9.859375,0.23828125,0.18359375,0.021484375,0.009765625,0.013671875,0.3734130859375,-0.59307861328125,0.36346435546875,0.61376953125,67.75871266162918,-88.63431912781648,-40.34778850546396
443,17.760057186000267,bno085,9.86328125,0.27734375,0.22265625,0.10546875,0.00390625,0.025390625,0.3741455078125,-0.59228515625,0.3648681640625,0.61328125,65.41676798938396,-88.64671349849104,-37.74072280495637
444,17.800057503000062,bno085,9.859375,0.23828125,0.18359375,0.01953125,-0.001953125,-0.01171875,0.37469482421875,-0.59173583984375,0.36517333984375,0.61328125,65.06532585389152,-88.5985232735588,-37.341838642621035
445,17.840057116000025,bno085,9.890625,0.19921875,0.18359375,0.07421875,0.146484375,-0.033203125,0.37469482421875,-0.59173583984375,0.36517333984375,0.61328125,65.06532585389152,-88.5985232735588,-37.341838642621035
446,17.880056950999915,bno085,9.859375,0.23828125,0.3359375,0.052734375,0.171875,-0.037109375,0.375,-0.589111328125,0.36676025390625,0.61468505859375,55.77762609219124,-88.36268876754444,-27.845157008923046
447,17.9200560080003,bno085,9.82421875,0.3125,0.375,0.052734375,0.171875,-0.037109375,0.3746337890625,-0.5853271484375,0.36895751953125,0.6171875,44.66384159804015,-87.94318622389444,-16.591418344976738
448,17.960059213000022,bno085,9.86328125,0.19921875,0.3359375,-0.001953125,0.138671875,-0.017578125,0.373291015625,-0.58221435546875,0.37054443359375,0.6199951171875,36.87635983659162,-87.50592868892018,-8.765826402442153
449,18.000057085000208,bno085,9.93359375,0.0078125,0.52734375,-0.21875,0.3515625,-0.0234375,0.36712646484375,-0.57818603515625,0.37054443359375,0.62738037109375,26.86005209007888,-86.5782709828945,0.6469544407608071
450,18.040056661000108,bno085,9.78125,0.4296875,0.94921875,0.013671875,0.791015625,0.083984375,0.36712646484375,-0.57818603515625,0.37054443359375,0.62738037109375,26.86005209007888,-86.5782709828945,0.6469544407608071
451,18.080058015000304,bno085,9.78125,0.62109375,1.37109375,0.46875,0.90625,0.208984375,0.35980224609375,-0.5679931640625,0.37493896484375,0.63824462890625,17.906270949867128,-84.73834450697295,9.380448771874791
452,18.12005972099996,bno085,9.6640625,0.46875,1.21875,0.46875,0.90625,0.208984375,0.3563232421875,-0.5533447265625,0.38714599609375,0.645751953125,11.926428399934027,-82.64728404150488,16.270042346741153
453,18.160058555999967,bno085,9.703125,0.23828125,1.5625,-0.029296875,-0.123046875,0.076171875,0.35369873046875,-0.55157470703125,0.3900146484375,0.64697265625,9.451934206339125,-82.25905675574188,18.77681192197442
454,18.20005757600029,bno085,9.7421875,0.16015625,1.37109375,-0.185546875,-0.208984375,-0.09375,0.35302734375,-0.55487060546875,0.3856201171875,0.64715576171875,10.640672900714575,-82.60661611289181,17.091895013877163
455,18.24005931900001,bno085,9.7421875,0.3515625,1.37109375,-0.12109375,-0.23046875,-0.083984375,0.35302734375,-0.55487060546875,0.3856201171875,0.64715576171875,10.640672900714575,-82.60661611289181,17.091895013877163
456,18.280057986999964,bno085,9.78515625,0.23828125,1.1796875,0.046875,-0.1484375,-0.00390625,0.35467529296875,-0.5579833984375,0.3809814453125,0.64630126953125,13.491044620940201,-83.07907025266272,13.927599561038342
457,18.320064971000193,bno085,9.78515625,0.3515625,1.1796875,0.046875,-0.1484375,-0.00390625,0.35711669921875,-0.56011962890625,0.3787841796875,0.64447021484375,15.786870875950086,-83.50173379275026,11.684602549338234
458,18.36005587999989,bno085,9.78125,0.3125,1.1015625,0.087890625,-0.1953125,0.09375,0.35894775390625,-0.5631103515625,0.37945556640625,0.640380859375,15.255262033332077,-84.07550819486943,12.399163382049444
459,18.400056363000203,bno085,9.78125,0.3125,1.02734375,0.07421875,-0.26171875,0.134765625,0.36077880859375,-0.567626953125,0.380126953125,0.635009765625,13.860357723055811,-84.87490127727963,14.0586153247541
460,18.440055049999955,bno085,9.82421875,0.16015625,0.8359375,0.037109375,-0.248046875,0.083984375,0.36077880859375,-0.567626953125,0.380126953125,0.635009765625,13.860357723055811,-84.87490127727963,14.0586153247541
461,18.4800548850003,bno085,9.859375,0.23828125,0.7578125,0.0234375,-0.1796875,0.041015625,0.3624267578125,-0.5721435546875,0.379638671875,0.63018798828125,13.008277267944473,-85.64078110626792,14.9166907384067
462,18.520054701999925,bno085,9.859375,0.16015625,0.64453125,0.0234375,-0.1796875,0.041015625,0.36407470703125,-0.57537841796875,0.37884521484375,0.62677001953125,13.263650631148034,-86.21580030560625,14.734580875307334
463,18.560054889000185,bno085,9.890625,0.16015625,0.56640625,0.0390625,-0.041015625,0.01953125,0.364990234375,-0.57611083984375,0.37921142578125,0.6253662109375,13.11983204337319,-86.39577410524292,15.02232368295919
464,18.600054761000138,bno085,9.9296875,0.16015625,0.56640625,0.0390625,0.16015625,0.0390625,0.36407470703125,-0.573486328125,0.3817138671875,0.62677001953125,10.924624997690406,-85.99291468856221,17.358816493481033
465,18.64005755900007,bno085,9.859375,0.0078125,0.8359375,0.107421875,0.828125,-0.0390625,0.36407470703125,-0.573486328125,0.3817138671875,0.62677001953125,10.924624997690406,-85.99291468856221,17.358816493481033
466,18.680055024000012,bno085,9.8203125,0.4296875,1.21875,0.125,0.77734375,-0.390625,0.35986328125,-0.55975341796875,0.39105224609375,0.63580322265625,7.750777992570977,-83.86363264086931,21.091759231541655
467,18.72005721100004,bno085,10.66796875,0.46875,1.5234375,0.125,0.77734375,-0.390625,0.359619140625,-0.54339599609375,0.39569091796875,0.64715576171875,11.877239446222662,-81.62949283877126,17.480307514005208
468,18.76005786099995,bno085,10.0078125,1.08203125,2.09765625,-0.080078125,0.880859375,-0.77734375,0.361572265625,-0.52252197265625,0.39044189453125,0.6661376953125,20.34065024377652,-78.66951002721567,8.86486840510615
469,18.800056493000284,bno085,9.5859375,1.08203125,2.48046875,-0.1328125,1.373046875,-1.232421875,0.36224365234375,-0.4908447265625,0.38067626953125,0.6949462890625,26.709659503573707,-73.91079563702101,2.015220968712841
470,18.840057549999983,bno085,8.78515625,1.30859375,2.671875,0.119140625,1.203125,-1.146484375,0.36224365234375,-0.4908447265625,0.38067626953125,0.6949462890625,26.709659503573707,-73.91079563702101,2.015220968712841
471,18.880054847999872,bno085,8.671875,2.078125,3.59375,-0.4921875,1.76171875,-1.103515625,0.36395263671875,-0.457763671875,0.37353515625,0.72003173828125,29.89115602250361,-69.18592892723318,-1.198147289270918
472,18.92005738700027,bno085,8.55859375,2.61328125,4.2421875,-0.4921875,1.76171875,-1.103515625,0.35345458984375,-0.4200439453125,0.36480712890625,0.75201416015625,29.502090335788033,-63.406541841807574,-1.913550115398431
473,18.960055722000106,bno085,8.63671875,1.5390625,3.01953125,-0.19140625,1.703125,-0.828125,0.34246826171875,-0.3819580078125,0.3607177734375,0.77886962890625,28.530086155994294,-57.93783736502032,-1.5378761851456073
474,19.000055928000165,bno085,7.5546875,2.95703125,4.89453125,-0.23046875,0.3359375,-0.783203125,0.34393310546875,-0.371826171875,0.34735107421875,0.7891845703125,30.310577209867212,-56.24701436276666,-4.173369285330395
475,19.040055133999886,bno085,6.37109375,3.68359375,5.546875,-0.408203125,1.384765625,-1.130859375,0.34393310546875,-0.371826171875,0.34735107421875,0.7891845703125,30.310577209867212,-56.24701436276666,-4.173369285330395
476,19.080057599000156,bno085,7.75,3.2265625,5.81640625,-1.814453125,4.919921875,-1.30078125,0.333984375,-0.3438720703125,0.33209228515625,0.8123779296875,30.210913828266303,-51.884809087184635,-5.716631054794269
477,19.1200590630001,bno085,4.83984375,2.0390625,5.35546875,-1.814453125,4.919921875,-1.30078125,0.27703857421875,-0.256591796875,0.331787109375,0.864501953125,23.334735695753963,-39.44068947539201,-1.7376473698835524
478,19.160058195000147,bno085,4.6484375,2.19140625,7.30859375,-0.787109375,1.603515625,0.1796875,0.2335205078125,-0.21380615234375,0.3482666015625,0.88232421875,18.147344634678873,-33.25345916284394,2.3316549077208912
479,19.200059678999878,bno085,5.4140625,2.53515625,7.96484375,-0.37109375,0.056640625,-0.021484375,0.226318359375,-0.217041015625,0.34649658203125,0.88409423828125,17.19918410216496,-33.298486932834216,2.3302108862463933
480,19.240058420999958,bno085,5.22265625,2.078125,7.7265625,-1.130859375,1.587890625,0.259765625,0.226318359375,-0.217041015625,0.34649658203125,0.88409423828125,17.19918410216496,-33.298486932834216,2.3302108862463933
481,19.280055460000312,bno085,4.53515625,1.42578125,8.23046875,-1.98046875,1.97265625,0.02734375,0.1920166015625,-0.19921875,0.35174560546875,0.894287109375,13.409413594305596,-30.004050250470318,4.021059629070133
482,19.320054944000276,bno085,3.99609375,1.00390625,8.796875,-1.98046875,1.97265625,0.02734375,0.13006591796875,-0.17132568359375,0.35302734375,0.91058349609375,7.178515302983395,-24.388168914329242,5.482647223982328
483,19.360054724000292,bno085,3.3828125,0.62109375,9.796875,-2.060546875,3.064453125,0.4375,0.053466796875,-0.12353515625,0.3597412109375,0.92327880859375,0.4734680163861532,-16.02765035251455,7.119351511798864
484,19.40005615200016,bno085,1.8125,-0.14453125,9.8359375,-0.748046875,3.029296875,-0.078125,0.00213623046875,-0.0640869140625,0.360595703125,0.93048095703125,-2.5476987473826536,-7.505072776904065,7.119599615793392
485,19.44005757900004,bno085,0.43359375,-0.10546875,10.140625,0.01953125,2.763671875,-0.08984375,0.00213623046875,-0.0640869140625,0.360595703125,0.93048095703125,-2.5476987473826536,-7.505072776904065,7.119599615793392
486,19.48005580400013,bno085,-0.5234375,0.12109375,9.87890625,0.125,2.32421875,-0.44140625,-0.02569580078125,-0.000244140625,0.35791015625,0.93341064453125,-2.862056246098118,0.4601648896582517,6.526649391975031
487,19.520054861000062,bno085,-1.13671875,0.0859375,9.375,0.125,2.32421875,-0.44140625,-0.04156494140625,0.04986572265625,0.34796142578125,0.93524169921875,-2.5756611362497295,6.449255117549333,5.2458856260967295
488,19.560057141000016,bno085,-1.86328125,-0.7578125,9.33984375,-0.25,3.455078125,-0.564453125,-0.0760498046875,0.12554931640625,0.3314208984375,0.9320068359375,-3.5727941879512066,15.952453654847684,3.2170507433866016
489,19.600057235999884,bno085,-3.625,-1.1015625,8.953125,-1.00390625,4.314453125,-0.404296875,-0.13238525390625,0.2120361328125,0.31439208984375,0.915771484375,-7.15949209261672,27.562937767519045,0.6811379105496133
490,19.640055848999964,bno085,-5.00390625,-1.1796875,8.65234375,-0.58984375,3.4375,-0.22265625,-0.13238525390625,0.2120361328125,0.31439208984375,0.915771484375,-7.15949209261672,27.562937767519045,0.6811379105496133
491,19.680057313999896,bno085,-6.23046875,-1.484375,7.04296875,-0.28125,2.076171875,-0.181640625,-0.17645263671875,0.28143310546875,0.30224609375,0.89349365234375,-10.579471909548387,36.98263523872581,-1.6391237263348102
492,19.720057760000145,bno085,-6.5390625,-1.67578125,6.65625,-0.28125,2.076171875,-0.181640625,-0.20281982421875,0.328369140625,0.29156494140625,0.875244140625,-13.110810975667356,43.29699104667673,-3.8551446888928047
493,19.760056651000014,bno085,-6.65234375,-1.5234375,6.19921875,0.115234375,1.08203125,0.013671875,-0.20941162109375,0.35406494140625,0.28472900390625,0.8658447265625,-13.659286850992103,46.51039445989461,-4.969903503393084
494,19.800057227000252,bno085,-7.23046875,-1.33203125,6.19921875,0.458984375,1.35546875,0.20703125,-0.20770263671875,0.38525390625,0.27813720703125,0.85504150390625,-12.83589467842195,50.169735530932066,-5.465312819617911
495,19.840058710999983,bno085,-7.41796875,-1.02734375,5.625,0.517578125,1.177734375,0.1328125,-0.20770263671875,0.38525390625,0.27813720703125,0.85504150390625,-12.83589467842195,50.169735530932066,-5.465312819617911
496,19.880055639000147,bno085,-7.69140625,-1.140625,5.46875,0.576171875,1.17578125,-0.07421875,-0.20233154296875,0.41290283203125,0.2706298828125,0.84576416015625,-11.590988132571425,53.32037447093999,-5.81623311097103
497,19.92005484399988,bno085,-7.9921875,-1.02734375,5.31640625,0.576171875,1.17578125,-0.07421875,-0.18817138671875,0.44354248046875,0.23956298828125,0.8428955078125,-10.9497829286236,56.34299212529563,-9.590057082393939
498,19.960054882999884,bno085,-7.796875,-0.453125,4.359375,0.423828125,1.05859375,-0.0390625,-0.18212890625,0.471435546875,0.2208251953125,0.83416748046875,-10.895125111763656,59.5344587511844,-12.018247965555553
499,20.000055200000133,bno085,-8.37890625,-0.52734375,3.66796875,0.15234375,2.607421875,0.080078125,-0.18853759765625,0.520751953125,0.2078857421875,0.8062744140625,-12.479510688338,66.08579986493577,-14.641646019576479
500,20.04005498000015,bno085,-8.94921875,-0.71875,3.25,-0.15234375,3.05859375,-0.33984375,-0.18853759765625,0.520751953125,0.2078857421875,0.8062744140625,-12.479510688338,66.08579986493577,-14.641646019576479
501,20.080058389999976,bno085,-8.64453125,-0.8359375,2.0625,0.00390625,3.404296875,-0.220703125,-0.20635986328125,0.5809326171875,0.18902587890625,0.76434326171875,-21.01434041274576,74.4902154275955,-23.687962815548307
502,20.120058966000215,bno085,-8.9140625,-1.71484375,0.8359375,0.00390625,3.404296875,-0.220703125,-0.22161865234375,0.6419677734375,0.16546630859375,0.715087890625,-50.03542325727922,82.16514383726306,-53.63737184049662
503,20.160057190000316,bno085,-9.30078125,-1.5234375,0.296875,-0.046875,0.865234375,-0.4296875,-0.232666015625,0.66436767578125,0.1519775390625,0.69378662109375,-81.0532730244158,82.97134420885509,-84.87358517182918
504,20.200058415000058,bno085,-9.22265625,-1.02734375,-0.19921875,-0.01953125,-0.134765625,0.17578125,-0.22412109375,0.664306640625,0.14825439453125,0.697509765625,-76.84077958524851,83.19020802259753,-81.68991596217779
505,20.240057823999905,bno085,-9.8671875,-1.02734375,-0.19921875,-0.037109375,0.10546875,0.4375,-0.215087890625,0.66796875,0.15313720703125,0.69580078125,-75.07853651760352,84.39036334379294,-80.28680250161622
506,20.280058197000017,bno085,-9.484375,-0.875,-0.046875,-0.03125,0.328125,-0.0546875,-0.215087890625,0.66796875,0.15313720703125,0.69580078125,-75.07853651760352,84.39036334379294,-80.28680250161622
507,20.32005736600013,bno085,-9.2578125,-0.8359375,-0.0078125,-0.03125,0.328125,-0.0546875,-0.21533203125,0.6734619140625,0.15087890625,0.69085693359375,-83.79305364161291,84.57388875064223,-89.17958421816223
508,20.36005736800007,bno085,-9.6796875,-0.7578125,-0.19921875,-0.017578125,-0.16015625,0.24609375,-0.21148681640625,0.67474365234375,0.15252685546875,0.69049072265625,-83.3265391216352,85.03915283918485,-88.89228485206932
509,20.400060833000225,bno085,-9.06640625,-0.64453125,-0.19921875,-0.125,-0.1484375,0.525390625,-0.20123291015625,0.67572021484375,0.16217041015625,0.69036865234375,-74.77788409015015,86.53369657379871,-80.40720743616944
510,20.440058650000083,bno085,-9.30078125,-0.48828125,-0.16015625,-0.078125,-0.158203125,0.34765625,-0.20123291015625,0.67572021484375,0.16217041015625,0.69036865234375,-74.77788409015015,86.53369657379871,-80.40720743616944
511,20.4800572260001,bno085,-9.26171875,-0.10546875,-0.0078125,-0.107421875,-0.099609375,0.064453125,-0.19366455078125,0.675048828125,0.1700439453125,0.69134521484375,-57.99072713792152,87.44120387148398,-63.56278848387423
512,20.520057968999936,bno085,-9.140625,-0.22265625,-0.0859375,-0.05078125,-0.048828125,0.21484375,-0.19287109375,0.67376708984375,0.17266845703125,0.692138671875,-50.78841924389735,87.48547965976601,-56.22233408553673
513,20.5600599710001,bno085,-9.296875,-0.10546875,-0.0078125,-0.05078125,-0.048828125,0.21484375,-0.1910400390625,0.67388916015625,0.1749267578125,0.69195556640625,-44.49566578725794,87.68501538493791,-49.89474055556577
514,20.600058270000318,bno085,-9.26171875,-0.10546875,-0.0078125,-0.060546875,0.072265625,-0.013671875,-0.19012451171875,0.67498779296875,0.17352294921875,0.69146728515625,-46.86610718630588,87.77478477487435,-52.480009437225846
515,20.640059419999943,bno085,-9.30078125,-0.14453125,-0.0859375,0.02734375,0.052734375,0.009765625,-0.187744140625,0.6761474609375,0.17108154296875,0.691650390625,-47.94015456104668,87.84347749205223,-53.90786735461428
516,20.680057515000044,bno085,-9.296875,-0.0703125,-0.0859375,0.001953125,-0.052734375,-0.00390625,-0.187744140625,0.6761474609375,0.17108154296875,0.691650390625,-47.94015456104668,87.84347749205223,-53.90786735461428
517,20.72005946099989,bno085,-9.2578125,-0.22265625,-0.046875,0.001953125,-0.052734375,-0.00390625,-0.18646240234375,0.6756591796875,0.17010498046875,0.69268798828125,-45.536585783086686,87.75109945139137,-51.717006456004356
518,20.76005603800013,bno085,-9.26171875,-0.22265625,-0.0078125,0.083984375,-0.009765625,-0.001953125,-0.183837890625,0.67584228515625,0.16766357421875,0.6937255859375,-43.97647046426218,87.69575065662477,-50.648373340689744
519,20.80005694700003,bno085,-9.2578125,-0.18359375,0.03125,0.005859375,0.0234375,0.0,-0.18206787109375,0.6767578125,0.1656494140625,0.69384765625,-45.12391246389212,87.74620836219836,-52.05867754726984
520,20.84005726400028,bno085,-9.296875,-0.18359375,-0.046875,-0.013671875,0.0625,0.0,-0.18206787109375,0.6767578125,0.1656494140625,0.69384765625,-45.12391246389212,87.74620836219836,-52.05867754726984
521,20.880057007000232,bno085,-9.30078125,-0.18359375,-0.12109375,-0.021484375,0.048828125,0.0,-0.180419921875,0.67822265625,0.16339111328125,0.693359375,-48.19893924127026,87.85308241196523,-55.480461427896984
522,20.92005939799992,bno085,-9.296875,-0.22265625,-0.16015625,-0.001953125,0.064453125,0.005859375,-0.1748046875,0.68084716796875,0.15740966796875,0.69366455078125,-51.43857128659883,87.99461810893216,-59.64211959486728
523,20.960058178000054,bno085,-9.2578125,-0.18359375,-0.12109375,-0.001953125,0.064453125,0.005859375,-0.1690673828125,0.68377685546875,0.15142822265625,0.6934814453125,-56.11666363040778,88.17554141488819,-65.3418417970302
524,21.000057494999965,bno085,-9.296875,-0.22265625,-0.16015625,-0.078125,0.119140625,0.00390625,-0.16455078125,0.6875,0.14617919921875,0.6920166015625,-67.65217347431776,88.41187060404336,-77.68417201152033
525,21.040056498000013,bno085,-9.328125,-0.26171875,-0.23828125,-0.044921875,0.09375,0.0,-0.16455078125,0.6875,0.14617919921875,0.6920166015625,-67.65217347431776,88.41187060404336,-77.68417201152033
526,21.08005746300023,bno085,-9.328125,-0.22265625,-0.23828125,-0.01171875,0.052734375,0.001953125,-0.159423828125,0.6907958984375,0.1405029296875,0.69110107421875,-79.21619287312626,88.54353115358342,-90.14703590435542
527,21.120059928000046,bno085,-9.3671875,-0.18359375,-0.31640625,-0.01171875,0.052734375,0.001953125,-0.15631103515625,0.6925048828125,0.13720703125,0.6907958984375,-85.38838283837595,88.58797993762566,-96.83611814540262
528,21.160056800999882,bno085,-9.328125,-0.22265625,-0.23828125,0.015625,-0.048828125,-0.001953125,-0.151123046875,0.693359375,0.13238525390625,0.6920166015625,-83.40786781474564,88.61147691709914,-95.69018782409532
529,21.200057432999984,bno085,-9.6171875,-0.46875,-0.4375,-0.0078125,-0.015625,-0.001953125,-0.14886474609375,0.69366455078125,0.13031005859375,0.692626953125,-82.17149264982737,88.61976906867069,-94.79846728526358
530,21.24006267599998,bno085,-9.62109375,-0.4296875,-0.4375,-0.0078125,-0.001953125,0.0,-0.14886474609375,0.69366455078125,0.13031005859375,0.692626953125,-82.17149264982737,88.61976906867069,-94.79846728526358
531,21.28005786299991,bno085,-9.62109375,-0.4296875,-0.4375,-0.013671875,0.01171875,0.0,-0.1453857421875,0.694580078125,0.12689208984375,0.69305419921875,-83.29994960669538,88.63958470299421,-96.50868095032247
532,21.320058031999906,bno085,-9.62109375,-0.4296875,-0.47265625,-0.013671875,0.01171875,0.0,-0.14227294921875,0.695556640625,0.12371826171875,0.69329833984375,-85.53006972086384,88.6543942469895,-99.25657186825339
533,21.36005907200024,bno085,-9.62109375,-0.4296875,-0.47265625,0.0,0.01171875,0.0,-0.13787841796875,0.6968994140625,0.11932373046875,0.693603515625,-88.68449454544896,88.67770209046529,-103.13715781310462
534,21.400057758999992,bno085,-9.62109375,-0.4296875,-0.4375,-0.005859375,-0.009765625,0.001953125,-0.1337890625,0.69793701171875,0.1151123046875,0.694091796875,-90.41240866387803,88.67970378585593,-105.54512866843703
535,21.440058169000167,bno085,-9.62109375,-0.4296875,-0.47265625,-0.015625,-0.01171875,0.001953125,-0.13018798828125,0.69879150390625,0.11138916015625,0.69451904296875,-91.67276332074609,88.67828208159399,-107.40966241140127
536,21.480057374999888,bno085,-9.62109375,-0.4296875,-0.47265625,-0.029296875,-0.025390625,-0.001953125,-0.13018798828125,0.69879150390625,0.11138916015625,0.69451904296875,-91.67276332074609,88.67828208159399,-107.40966241140127
537,21.520057933000317,bno085,-9.66015625,-0.4296875,-0.47265625,-0.021484375,-0.048828125,-0.001953125,-0.1282958984375,0.69903564453125,0.10943603515625,0.6949462890625,-90.96307654534907,88.67275263296807,-107.01436565270002
538,21.56005862000029,bno085,-9.65625,-0.46875,-0.4375,-0.021484375,-0.048828125,-0.001953125,-0.12664794921875,0.69879150390625,0.1077880859375,0.69573974609375,-87.24991541767547,88.65874050385536,-103.57310258640783
539,21.60005604900016,bno085,-9.66015625,-0.46875,-0.3984375,-0.001953125,-0.060546875,-0.001953125,-0.12445068359375,0.6983642578125,0.10565185546875,0.6968994140625,-81.79503918623823,88.63220945563094,-98.47073689852064
540,21.640057236000303,bno085,-9.65625,-0.4296875,-0.3984375,0.00390625,-0.052734375,-0.001953125,-0.12445068359375,0.6983642578125,0.10565185546875,0.6968994140625,-81.79503918623823,88.63220945563094,-98.47073689852064
541,21.680057405000298,bno085,-9.6171875,-0.390625,-0.359375,0.017578125,0.0390625,0.0,-0.12109375,0.69842529296875,0.10211181640625,0.69793701171875,-78.56431270100421,88.59492620544837,-95.81251799326397
542,21.720058185000198,bno085,-9.65625,-0.4296875,-0.359375,-0.0390625,0.009765625,-0.001953125,-0.117919921875,0.69976806640625,0.0985107421875,0.6976318359375,-83.86804307862052,88.60512277175219,-101.67738977194267
543,21.76006061399994,bno085,-9.66015625,-0.5078125,-0.3984375,-0.0390625,0.009765625,-0.001953125,-0.115966796875,0.700927734375,0.09619140625,0.6971435546875,-89.41098818487053,88.60589976292557,-107.56488234652333
544,21.800057412000115,bno085,-9.69921875,-0.46875,-0.4375,-0.005859375,-0.056640625,-0.001953125,-0.11297607421875,0.70025634765625,0.0931396484375,0.69866943359375,-82.02284777465457,88.56368586278604,-100.68474427931763
545,21.840058859000237,bno085,-9.66015625,-0.4296875,-0.3203125,0.033203125,-0.16796875,-0.0078125,-0.10992431640625,0.6978759765625,0.09039306640625,0.701904296875,-65.74503425430562,88.39948395495325,-84.88492722650842
546,21.88005767599998,bno085,-9.62109375,-0.4296875,-0.24609375,0.013671875,-0.099609375,-0.001953125,-0.10992431640625,0.6978759765625,0.09039306640625,0.701904296875,-65.74503425430562,88.39948395495325,-84.88492722650842
547,21.920056790000217,bno085,-9.6171875,-0.46875,-0.12890625,-0.021484375,-0.001953125,0.001953125,-0.1070556640625,0.69659423828125,0.087646484375,0.70404052734375,-57.835068877756626,88.2485542398869,-77.40138814278026
548,21.960057903000234,bno085,-9.65625,-0.46875,-0.16796875,-0.021484375,-0.001953125,0.001953125,-0.10589599609375,0.6966552734375,0.0863037109375,0.70428466796875,-57.584643452821595,88.22702615154735,-77.37282159961912
549,22.000057368999933,bno085,-9.65625,-0.46875,-0.20703125,-0.009765625,-0.0078125,0.0,-0.1048583984375,0.6968994140625,0.0850830078125,0.704345703125,-58.156619094535486,88.22599944005796,-78.13011489091912
550,22.04005727799995,bno085,-9.66015625,-0.4296875,-0.16796875,-0.01953125,-0.005859375,0.001953125,-0.10382080078125,0.6971435546875,0.08392333984375,0.70440673828125,-58.65448008398464,88.22902821692963,-78.8034567934706
551,22.08006018800006,bno085,-9.66015625,-0.4296875,-0.16796875,-0.05078125,0.041015625,0.001953125,-0.10382080078125,0.6971435546875,0.08392333984375,0.70440673828125,-58.65448008398464,88.22902821692963,-78.8034567934706
552,22.12005950599996,bno085,-9.62109375,-0.4296875,-0.12890625,-0.181640625,0.0546875,-0.001953125,-0.1029052734375,0.6981201171875,0.08251953125,0.7037353515625,-62.82899116759943,88.27822465439043,-83.16962030748273
553,22.16005850800002,bno085,-9.66015625,-0.4296875,-0.24609375,-0.181640625,0.0546875,-0.001953125,-0.10498046875,0.69903564453125,0.0841064453125,0.70233154296875,-69.11875971120811,88.34172732506877,-89.15997467012683
554,22.20005793700011,bno085,-9.65625,-0.5078125,-0.3203125,-0.08984375,0.0234375,-0.005859375,-0.10546875,0.69952392578125,0.0841064453125,0.7017822265625,-72.37815391883336,88.34462927333954,-92.37659935233327
