sample,time_s,sensor,accel_x_mps2,accel_y_mps2,accel_z_mps2,gyro_x_radps,gyro_y_radps,gyro_z_radps,quat_i,quat_j,quat_k,quat_real,roll_deg,pitch_deg,yaw_deg
0,0.04005480100022396,bno085,0.16015625,-0.41015625,9.87109375,-0.00390625,-0.001953125,0.0,-0.0174560546875,-0.011962890625,0.23077392578125,0.9727783203125,1.3222953628183022e-06,-1.9294718049287463e-06,-1.0002018152995486e-07
1,0.08005495399993379,bno085,0.16015625,-0.41015625,9.83203125,0.00390625,0.0,0.001953125,-0.0194091796875,-0.01336669921875,0.25726318359375,0.966064453125,-0.23646679252689662,-0.16066368836801195,3.1314495683928367
2,0.12005384800067986,bno085,0.16015625,-0.41015625,9.87109375,0.001953125,0.001953125,0.0,-0.0194091796875,-0.01336669921875,0.25726318359375,0.966064453125,-0.23646679252689662,-0.16066368836801195,3.1314495683928367
3,0.1600529089992051,bno085,0.16015625,-0.41015625,9.83203125,0.0,0.001953125,0.001953125,-0.0194091796875,-0.01324462890625,0.253173828125,0.9671630859375,-0.23548536848981888,-0.1384330496113915,2.647473890094234
4,0.20005282200145302,bno085,0.16015625,-0.41015625,9.83203125,0.0,0.001953125,0.001953125,-0.019287109375,-0.0130615234375,0.2451171875,0.96923828125,-0.22222750313023526,-0.10440537325204034,1.6942765313896384
5,0.24005271600253764,bno085,0.16015625,-0.41015625,9.83203125,0.0078125,-0.001953125,0.001953125,-0.01910400390625,-0.01275634765625,0.23529052734375,0.9716796875,-0.20102793507987887,-0.054565627064557365,0.5345588832455938
6,0.2800526470018667,bno085,0.16015625,-0.41015625,9.83203125,-0.001953125,0.0,-0.001953125,-0.01904296875,-0.0125732421875,0.225341796875,0.9739990234375,-0.19791373275436688,-0.014583527668964192,-0.6375582243551786
7,0.32005272600144963,bno085,0.16015625,-0.41015625,9.83203125,-0.005859375,0.0,-0.001953125,-0.01904296875,-0.0125732421875,0.225341796875,0.9739990234375,-0.19791373275436688,-0.014583527668964192,-0.6375582243551786
8,0.3600531200027035,bno085,0.16015625,-0.41015625,9.83203125,-0.001953125,0.0,0.001953125,-0.01904296875,-0.011962890625,0.1986083984375,0.97979736328125,-0.21056721088358038,0.10914122297227814,-3.7710549998771983
9,0.4000529950026248,bno085,0.16015625,-0.41015625,9.87109375,-0.001953125,0.0,0.001953125,-0.0194091796875,-0.01202392578125,0.19879150390625,0.97979736328125,-0.2529464906800039,0.11015916281228252,-3.7481637620117625
10,0.44005272300273646,bno085,0.16015625,-0.41015625,9.83203125,-0.005859375,-0.001953125,0.0,-0.0194091796875,-0.01202392578125,0.19866943359375,0.97979736328125,-0.25304975687380915,0.11045189870678539,-3.7629520913502215
11,0.48005278300115606,bno085,0.16015625,-0.41015625,9.83203125,-0.001953125,-0.00390625,-0.00390625,-0.0194091796875,-0.01202392578125,0.19866943359375,0.97979736328125,-0.25304975687380915,0.11045189870678539,-3.7629520913502215
12,0.5200525850013946,bno085,0.16015625,-0.41015625,9.83203125,0.0,0.001953125,0.0,-0.0194091796875,-0.01202392578125,0.19866943359375,0.97979736328125,-0.25304975687380915,0.11045189870678539,-3.7629520913502215
13,0.5600527560018236,bno085,0.16015625,-0.41015625,9.83203125,0.001953125,0.001953125,0.0,-0.0194091796875,-0.01202392578125,0.19842529296875,0.9798583984375,-0.25334869781550623,0.11091354534974628,-3.7912506526370686
14,0.6000529280026967,bno085,0.16015625,-0.41015625,9.87109375,0.001953125,0.001953125,0.0,-0.01922607421875,-0.011962890625,0.19818115234375,0.97991943359375,-0.2316852986234596,0.11408407242203701,-3.8198647420697003
15,0.640052637001645,bno085,0.16015625,-0.41015625,9.87109375,-0.001953125,0.0,0.001953125,-0.01922607421875,-0.011962890625,0.19818115234375,0.97991943359375,-0.2316852986234596,0.11408407242203701,-3.8198647420697003
16,0.6800526049992186,bno085,0.16015625,-0.41015625,9.87109375,-0.00390625,0.0,0.0,-0.01922607421875,-0.01202392578125,0.1981201171875,0.97991943359375,-0.23312622146340228,0.10737486702936803,-3.827330748117974
17,0.720052554999711,bno085,0.16015625,-0.41015625,9.83203125,0.001953125,0.0,0.0,-0.01922607421875,-0.01202392578125,0.1981201171875,0.97991943359375,-0.23312622146340228,0.10737486702936803,-3.827330748117974
18,0.760052559999167,bno085,0.16015625,-0.41015625,9.87109375,0.001953125,0.0,0.0,-0.01922607421875,-0.01202392578125,0.1981201171875,0.97991943359375,-0.23312622146340228,0.10737486702936803,-3.827330748117974
19,0.8000524350027263,bno085,0.16015625,-0.41015625,9.83203125,0.001953125,0.0,0.0,-0.0191650390625,-0.01202392578125,0.19818115234375,0.97991943359375,-0.22621645431476528,0.10584497911251815,-3.8200695090040826
20,0.84005288499975,bno085,0.16015625,-0.41015625,9.87109375,-0.001953125,0.001953125,-0.001953125,-0.0191650390625,-0.01202392578125,0.1981201171875,0.97991943359375,-0.2262683438477679,0.10599282307332976,-3.827461372819152
21,0.8800530010012153,bno085,0.16015625,-0.41015625,9.87109375,-0.00390625,0.0,0.0,-0.0191650390625,-0.01202392578125,0.19818115234375,0.97991943359375,-0.22621645431476528,0.10584497911251815,-3.8200695090040826
22,0.9200526730019192,bno085,0.16015625,-0.41015625,9.87109375,0.001953125,0.001953125,0.0,-0.0191650390625,-0.01202392578125,0.19818115234375,0.97991943359375,-0.22621645431476528,0.10584497911251815,-3.8200695090040826
23,0.9600548810012697,bno085,0.16015625,-0.41015625,9.83203125,-0.005859375,-0.001953125,-0.001953125,-0.0191650390625,-0.011962890625,0.19818115234375,0.97991943359375,-0.2248274331062429,0.11270158956137608,-3.8199949888152203
24,1.0000567570023122,bno085,0.16015625,-0.41015625,9.87109375,-0.005859375,-0.001953125,-0.001953125,-0.0191650390625,-0.01202392578125,0.1981201171875,0.97991943359375,-0.2262683438477679,0.10599282307332976,-3.827461372819152
25,1.0400550949998433,bno085,0.16015625,-0.41015625,9.87109375,0.0,0.0,0.0,-0.0191650390625,-0.011962890625,0.19818115234375,0.97991943359375,-0.2248274331062429,0.11270158956137608,-3.8199949888152203
26,1.080053804002091,bno085,0.16015625,-0.41015625,9.83203125,-0.001953125,-0.001953125,0.0,-0.0191650390625,-0.01202392578125,0.19818115234375,0.97991943359375,-0.22621645431476528,0.10584497911251815,-3.8200695090040826
27,1.1200537719996646,bno085,0.16015625,-0.41015625,9.87109375,0.00390625,-0.001953125,0.001953125,-0.0191650390625,-0.01202392578125,0.19818115234375,0.97991943359375,-0.22621645431476528,0.10584497911251815,-3.8200695090040826
28,1.160054850999586,bno085,0.16015625,-0.41015625,9.87109375,0.00390625,0.0,0.001953125,-0.0191650390625,-0.01202392578125,0.19818115234375,0.97991943359375,-0.22621645431476528,0.10584497911251815,-3.8200695090040826
29,1.20005452300029,bno085,0.16015625,-0.41015625,9.87109375,0.00390625,0.0,0.001953125,-0.0191650390625,-0.01202392578125,0.19818115234375,0.97991943359375,-0.22621645431476528,0.10584497911251815,-3.8200695090040826
30,1.2400549910016707,bno085,0.16015625,-0.41015625,9.83203125,0.001953125,0.0,0.0,-0.0191650390625,-0.01202392578125,0.19818115234375,0.97991943359375,-0.22621645431476528,0.10584497911251815,-3.8200695090040826
31,1.2800547930019093,bno085,0.16015625,-0.44921875,9.828125,0.0,0.0,0.0,-0.01910400390625,-0.01202392578125,0.19818115234375,0.97991943359375,-0.21935860517584094,0.10446250875065317,-3.820200148842805
32,1.3200546309999481,bno085,0.16015625,-0.41015625,9.83203125,0.0,0.0,0.0,-0.01910400390625,-0.01202392578125,0.19818115234375,0.97991943359375,-0.21935860517584094,0.10446250875065317,-3.820200148842805
33,1.3600545990011597,bno085,0.16015625,-0.41015625,9.83203125,0.0,0.0,0.0,-0.01910400390625,-0.01202392578125,0.19818115234375,0.97991943359375,-0.21935860517584094,0.10446250875065317,-3.820200148842805
34,1.4000538820000656,bno085,0.16015625,-0.41015625,9.83203125,0.0,0.0,0.0,-0.01910400390625,-0.011962890625,0.19818115234375,0.97991943359375,-0.2179695958367442,0.11131910675738702,-3.8201252355964215
35,1.4400545349999447,bno085,0.1953125,-0.41015625,9.87109375,0.0,0.0,0.0,-0.01910400390625,-0.011962890625,0.19818115234375,0.97991943359375,-0.2179695958367442,0.11131910675738702,-3.8201252355964215
36,1.4800544480021927,bno085,0.1953125,-0.41015625,9.87109375,0.0,0.0,0.0,-0.01910400390625,-0.011962890625,0.19818115234375,0.97991943359375,-0.2179695958367442,0.11131910675738702,-3.8201252355964215
37,1.5200528230016062,bno085,0.16015625,-0.41015625,9.87109375,0.0,0.0,0.0,-0.01910400390625,-0.011962890625,0.19818115234375,0.97991943359375,-0.2179695958367442,0.11131910675738702,-3.8201252355964215
38,1.5600532540011045,bno085,0.16015625,-0.41015625,9.87109375,0.0,0.0,0.0,-0.01910400390625,-0.011962890625,0.19818115234375,0.97991943359375,-0.2179695958367442,0.11131910675738702,-3.8201252355964215
39,1.6000539449996722,bno085,0.16015625,-0.41015625,9.87109375,0.0,0.0,0.0,-0.01910400390625,-0.01202392578125,0.19818115234375,0.97991943359375,-0.21935860517584094,0.10446250875065317,-3.820200148842805
40,1.6400540239992552,bno085,0.16015625,-0.41015625,9.83203125,0.0,0.0,0.0,-0.01904296875,-0.01202392578125,0.19818115234375,0.97991943359375,-0.21250078415572546,0.10308003844087985,-3.820330788718071
41,1.6800530850014184,bno085,0.16015625,-0.41015625,9.87109375,0.0,0.0,0.0,-0.01904296875,-0.01202392578125,0.19818115234375,0.97991943359375,-0.21250078415572546,0.10308003844087985,-3.820330788718071
42,1.720054016001086,bno085,0.16015625,-0.41015625,9.83203125,0.0,0.0,0.0,-0.01904296875,-0.01202392578125,0.19818115234375,0.97991943359375,-0.21250078415572546,0.10308003844087985,-3.820330788718071
43,1.760053058002086,bno085,0.16015625,-0.41015625,9.83203125,0.0,0.0,0.0,-0.01904296875,-0.0120849609375,0.19818115234375,0.97991943359375,-0.21388978416764554,0.0962234276173147,-3.8204057636602604
44,1.8000544700007595,bno085,0.16015625,-0.41015625,9.83203125,0.0,0.0,0.0,-0.01904296875,-0.0120849609375,0.19818115234375,0.97991943359375,-0.21388978416764554,0.0962234276173147,-3.8204057636602604
45,1.8400551049999194,bno085,0.16015625,-0.41015625,9.87109375,0.0,0.0,0.0,-0.01904296875,-0.0120849609375,0.19818115234375,0.97991943359375,-0.21388978416764554,0.0962234276173147,-3.8204057636602604
46,1.8800528690007923,bno085,0.16015625,-0.41015625,9.87109375,0.0,0.0,0.0,-0.01904296875,-0.0120849609375,0.19818115234375,0.97991943359375,-0.21388978416764554,0.0962234276173147,-3.8204057636602604
47,1.9200528930014116,bno085,0.16015625,-0.41015625,9.83203125,0.0,0.0,0.0,-0.01904296875,-0.01202392578125,0.19818115234375,0.97991943359375,-0.21250078415572546,0.10308003844087985,-3.820330788718071
48,1.960052843001904,bno085,0.16015625,-0.41015625,9.83203125,0.0,0.0,0.0,-0.01904296875,-0.01202392578125,0.19818115234375,0.97991943359375,-0.21250078415572546,0.10308003844087985,-3.820330788718071
49,2.0000566620001337,bno085,0.16015625,-0.41015625,9.87109375,0.0,0.0,0.0,-0.01904296875,-0.01202392578125,0.19818115234375,0.97991943359375,-0.21250078415572546,0.10308003844087985,-3.820330788718071
50,2.040055575002043,bno085,0.16015625,-0.41015625,9.87109375,0.0,0.0,0.0,-0.01904296875,-0.01202392578125,0.19818115234375,0.97991943359375,-0.21250078415572546,0.10308003844087985,-3.820330788718071
51,2.0800533950023237,bno085,0.16015625,-0.41015625,9.87109375,0.0,0.0,0.0,-0.01904296875,-0.01202392578125,0.19818115234375,0.97991943359375,-0.21250078415572546,0.10308003844087985,-3.820330788718071
52,2.120053974002076,bno085,0.1953125,-0.41015625,9.83203125,0.0,0.0,0.0,-0.01904296875,-0.01202392578125,0.19818115234375,0.97991943359375,-0.21250078415572546,0.10308003844087985,-3.820330788718071
53,2.1600527750015317,bno085,0.16015625,-0.41015625,9.87109375,0.0,0.0,0.0,-0.01904296875,-0.01202392578125,0.19818115234375,0.97991943359375,-0.21250078415572546,0.10308003844087985,-3.820330788718071
54,2.200053892000142,bno085,0.16015625,-0.41015625,9.83203125,0.0,0.0,0.0,-0.01904296875,-0.01202392578125,0.19818115234375,0.97991943359375,-0.21250078415572546,0.10308003844087985,-3.820330788718071
55,2.2400546000026225,bno085,0.16015625,-0.41015625,9.87109375,0.0,0.0,0.0,-0.01904296875,-0.01202392578125,0.19818115234375,0.97991943359375,-0.21250078415572546,0.10308003844087985,-3.820330788718071
56,2.2800546979997307,bno085,0.16015625,-0.41015625,9.83203125,0.0,0.0,0.0,-0.01904296875,-0.01202392578125,0.19818115234375,0.97991943359375,-0.21250078415572546,0.10308003844087985,-3.820330788718071
57,2.3200533140006883,bno085,0.16015625,-0.41015625,9.87109375,0.0,0.0,0.0,-0.01904296875,-0.01202392578125,0.19818115234375,0.97991943359375,-0.21250078415572546,0.10308003844087985,-3.820330788718071
58,2.3600527820017305,bno085,0.16015625,-0.41015625,9.83203125,0.0,0.0,0.0,-0.01904296875,-0.01202392578125,0.19818115234375,0.97991943359375,-0.21250078415572546,0.10308003844087985,-3.820330788718071
59,2.4000531759993464,bno085,0.16015625,-0.41015625,9.87109375,0.0,0.0,0.0,-0.01904296875,-0.01202392578125,0.19818115234375,0.97991943359375,-0.21250078415572546,0.10308003844087985,-3.820330788718071
60,2.4400531819992466,bno085,0.16015625,-0.41015625,9.87109375,0.0,0.0,0.0,-0.01904296875,-0.01202392578125,0.19818115234375,0.97991943359375,-0.21250078415572546,0.10308003844087985,-3.820330788718071
61,2.480053242001304,bno085,0.16015625,-0.41015625,9.83203125,0.0,0.0,0.0,-0.01904296875,-0.0120849609375,0.19818115234375,0.97991943359375,-0.21388978416764554,0.0962234276173147,-3.8204057636602604
62,2.5200527840024733,bno085,0.16015625,-0.41015625,9.83203125,0.0,0.0,0.0,-0.01904296875,-0.0120849609375,0.19818115234375,0.97991943359375,-0.21388978416764554,0.0962234276173147,-3.8204057636602604
63,2.5600527339993278,bno085,0.16015625,-0.41015625,9.87109375,0.0,0.0,0.0,-0.01898193359375,-0.0120849609375,0.19818115234375,0.97991943359375,-0.20703197915483604,0.09484096977331777,-3.820536796633242
64,2.600052832000074,bno085,0.16015625,-0.41015625,9.83203125,0.0,0.0,0.0,-0.01898193359375,-0.0120849609375,0.19818115234375,0.97991943359375,-0.20703197915483604,0.09484096977331777,-3.820536796633242
65,2.6400527069999953,bno085,0.16015625,-0.41015625,9.83203125,0.0,0.0,0.0,-0.01898193359375,-0.0120849609375,0.19818115234375,0.97991943359375,-0.20703197915483604,0.09484096977331777,-3.820536796633242
66,2.680053175001376,bno085,0.16015625,-0.41015625,9.83203125,0.0,0.0,0.0,-0.01898193359375,-0.0120849609375,0.19818115234375,0.97991943359375,-0.20703197915483604,0.09484096977331777,-3.820536796633242
67,2.720053162000113,bno085,0.16015625,-0.41015625,9.87109375,0.0,0.0,0.0,-0.01898193359375,-0.0120849609375,0.19818115234375,0.97991943359375,-0.20703197915483604,0.09484096977331777,-3.820536796633242
68,2.760052685000119,bno085,0.16015625,-0.41015625,9.87109375,0.0,0.0,0.0,-0.01898193359375,-0.01202392578125,0.19818115234375,0.97991943359375,-0.20564299114464718,0.10169756818250313,-3.8204614286298813
69,2.8000527460026206,bno085,0.16015625,-0.41015625,9.87109375,0.0,0.0,0.0,-0.01904296875,-0.01202392578125,0.19818115234375,0.97991943359375,-0.21250078415572546,0.10308003844087985,-3.820330788718071
70,2.840052788000321,bno085,0.16015625,-0.41015625,9.87109375,0.0,0.0,0.0,-0.01904296875,-0.01202392578125,0.19818115234375,0.97991943359375,-0.21250078415572546,0.10308003844087985,-3.820330788718071
71,2.8800535340014903,bno085,0.16015625,-0.44921875,9.8671875,0.0,0.0,0.0,-0.01904296875,-0.01202392578125,0.19818115234375,0.97991943359375,-0.21250078415572546,0.10308003844087985,-3.820330788718071
72,2.9200530580019404,bno085,0.16015625,-0.41015625,9.87109375,0.0,0.0,0.0,-0.01904296875,-0.01202392578125,0.19818115234375,0.97991943359375,-0.21250078415572546,0.10308003844087985,-3.820330788718071
73,2.9600527479997254,bno085,0.1953125,-0.44921875,9.828125,0.0,0.0,0.0,-0.01904296875,-0.01202392578125,0.19818115234375,0.97991943359375,-0.21250078415572546,0.10308003844087985,-3.820330788718071
74,3.0000568460018258,bno085,0.16015625,-0.41015625,9.83203125,0.0,0.0,0.0,-0.01904296875,-0.01202392578125,0.19818115234375,0.97991943359375,-0.21250078415572546,0.10308003844087985,-3.820330788718071
75,3.040053925000393,bno085,0.16015625,-0.41015625,9.87109375,0.0,0.0,0.0,-0.01904296875,-0.01202392578125,0.19818115234375,0.97991943359375,-0.21250078415572546,0.10308003844087985,-3.820330788718071
76,3.0800542079996376,bno085,0.16015625,-0.41015625,9.87109375,0.0,0.0,0.0,-0.01904296875,-0.01202392578125,0.19818115234375,0.97991943359375,-0.21250078415572546,0.10308003844087985,-3.820330788718071
77,3.1200546200016106,bno085,0.16015625,-0.41015625,9.87109375,0.0,0.0,0.0,-0.01904296875,-0.01202392578125,0.19818115234375,0.97991943359375,-0.21250078415572546,0.10308003844087985,-3.820330788718071
78,3.1600533480013837,bno085,0.16015625,-0.41015625,9.87109375,0.0,0.0,0.0,-0.01910400390625,-0.01202392578125,0.19818115234375,0.97991943359375,-0.21935860517584094,0.10446250875065317,-3.820200148842805
79,3.200054408000142,bno085,0.16015625,-0.41015625,9.83203125,0.0,0.0,0.0,-0.01910400390625,-0.01202392578125,0.19818115234375,0.97991943359375,-0.21935860517584094,0.10446250875065317,-3.820200148842805
80,3.2400549320009304,bno085,0.16015625,-0.41015625,9.87109375,0.0,0.0,0.0,-0.01910400390625,-0.01202392578125,0.19818115234375,0.97991943359375,-0.21935860517584094,0.10446250875065317,-3.820200148842805
81,3.2800545480022265,bno085,0.16015625,-0.41015625,9.87109375,0.0,0.0,0.0,-0.01910400390625,-0.01202392578125,0.19818115234375,0.97991943359375,-0.21935860517584094,0.10446250875065317,-3.820200148842805
82,3.3200549240027613,bno085,0.16015625,-0.41015625,9.87109375,0.0,0.0,0.0,-0.01910400390625,-0.01202392578125,0.19818115234375,0.97991943359375,-0.21935860517584094,0.10446250875065317,-3.820200148842805
83,3.3600549660004617,bno085,0.16015625,-0.41015625,9.87109375,0.0,0.0,0.0,-0.01904296875,-0.0120849609375,0.19818115234375,0.97991943359375,-0.21388978416764554,0.0962234276173147,-3.8204057636602604
84,3.4000548040021386,bno085,0.16015625,-0.41015625,9.87109375,0.0,0.0,0.0,-0.01904296875,-0.0120849609375,0.19818115234375,0.97991943359375,-0.21388978416764554,0.0962234276173147,-3.8204057636602604
85,3.44005371700041,bno085,0.16015625,-0.41015625,9.87109375,0.0,0.0,0.0,-0.01904296875,-0.0120849609375,0.19818115234375,0.97991943359375,-0.21388978416764554,0.0962234276173147,-3.8204057636602604
86,3.480054611001833,bno085,0.1953125,-0.41015625,9.83203125,0.0,0.0,0.0,-0.01904296875,-0.0120849609375,0.19818115234375,0.97991943359375,-0.21388978416764554,0.0962234276173147,-3.8204057636602604
87,3.520053096999618,bno085,0.16015625,-0.41015625,9.87109375,0.0,0.0,0.0,-0.01904296875,-0.0120849609375,0.19818115234375,0.97991943359375,-0.21388978416764554,0.0962234276173147,-3.8204057636602604
88,3.560053250999772,bno085,0.16015625,-0.41015625,9.83203125,0.0,0.0,0.0,-0.01904296875,-0.0120849609375,0.19818115234375,0.97991943359375,-0.21388978416764554,0.0962234276173147,-3.8204057636602604
89,3.600052793000941,bno085,0.16015625,-0.41015625,9.87109375,0.0,0.0,0.0,-0.01904296875,-0.0120849609375,0.19818115234375,0.97991943359375,-0.21388978416764554,0.0962234276173147,-3.8204057636602604
90,3.640052778999234,bno085,0.16015625,-0.41015625,9.87109375,0.0,0.0,0.0,-0.01904296875,-0.0120849609375,0.19818115234375,0.97991943359375,-0.21388978416764554,0.0962234276173147,-3.8204057636602604
91,3.6800528210005723,bno085,0.16015625,-0.41015625,9.83203125,0.0,0.0,0.0,-0.01904296875,-0.0120849609375,0.19818115234375,0.97991943359375,-0.21388978416764554,0.0962234276173147,-3.8204057636602604
92,3.7200542150021647,bno085,0.16015625,-0.41015625,9.87109375,0.0,0.0,0.0,-0.01904296875,-0.0120849609375,0.19818115234375,0.97991943359375,-0.21388978416764554,0.0962234276173147,-3.8204057636602604
93,3.760054943002615,bno085,0.16015625,-0.41015625,9.87109375,0.0,0.0,0.0,-0.01904296875,-0.0120849609375,0.19818115234375,0.97991943359375,-0.21388978416764554,0.0962234276173147,-3.8204057636602604
94,3.8000544480019016,bno085,0.16015625,-0.41015625,9.87109375,0.0,0.0,0.0,-0.01904296875,-0.0120849609375,0.19818115234375,0.97991943359375,-0.21388978416764554,0.0962234276173147,-3.8204057636602604
95,3.8400571380007023,bno085,0.1953125,-0.41015625,9.83203125,0.0,0.0,0.0,-0.01904296875,-0.0120849609375,0.19818115234375,0.97991943359375,-0.21388978416764554,0.0962234276173147,-3.8204057636602604
96,3.8800553280016175,bno085,0.16015625,-0.41015625,9.87109375,0.0,0.0,0.0,-0.01904296875,-0.0120849609375,0.19818115234375,0.97991943359375,-0.21388978416764554,0.0962234276173147,-3.8204057636602604
97,3.9200550929999736,bno085,0.16015625,-0.41015625,9.87109375,0.0,0.0,0.0,-0.01904296875,-0.0120849609375,0.19818115234375,0.97991943359375,-0.21388978416764554,0.0962234276173147,-3.8204057636602604
98,3.960054561001016,bno085,0.16015625,-0.41015625,9.87109375,0.0,0.0,0.0,-0.01904296875,-0.0120849609375,0.19818115234375,0.97991943359375,-0.21388978416764554,0.0962234276173147,-3.8204057636602604
99,4.000060566002503,bno085,0.16015625,-0.41015625,9.83203125,0.0,0.0,0.0,-0.01904296875,-0.0120849609375,0.19818115234375,0.97991943359375,-0.21388978416764554,0.0962234276173147,-3.8204057636602604
100,4.040057403999526,bno085,0.16015625,-0.41015625,9.87109375,0.0,0.0,0.0,-0.01898193359375,-0.0120849609375,0.19818115234375,0.97991943359375,-0.20703197915483604,0.09484096977331777,-3.820536796633242
101,4.080055595000886,bno085,0.16015625,-0.41015625,9.87109375,0.0,0.0,0.0,-0.01898193359375,-0.0120849609375,0.19818115234375,0.97991943359375,-0.20703197915483604,0.09484096977331777,-3.820536796633242
102,4.1200585440019495,bno085,0.16015625,-0.41015625,9.83203125,0.0,0.0,0.0,-0.01898193359375,-0.0120849609375,0.19818115234375,0.97991943359375,-0.20703197915483604,0.09484096977331777,-3.820536796633242
103,4.160054790001595,bno085,0.16015625,-0.41015625,9.87109375,0.0,0.0,0.0,-0.01898193359375,-0.0120849609375,0.19818115234375,0.97991943359375,-0.20703197915483604,0.09484096977331777,-3.820536796633242
104,4.2000557579995075,bno085,0.16015625,-0.41015625,9.83203125,0.0,0.0,0.0,-0.01898193359375,-0.0120849609375,0.19818115234375,0.97991943359375,-0.20703197915483604,0.09484096977331777,-3.820536796633242
105,4.240057300001354,bno085,0.16015625,-0.41015625,9.83203125,0.0,0.0,0.0,-0.01898193359375,-0.01202392578125,0.19818115234375,0.97991943359375,-0.20564299114464718,0.10169756818250313,-3.8204614286298813
106,4.280057509000471,bno085,0.1953125,-0.41015625,9.87109375,0.0,0.0,0.0,-0.01898193359375,-0.01202392578125,0.19818115234375,0.97991943359375,-0.20564299114464718,0.10169756818250313,-3.8204614286298813
107,4.320057662000181,bno085,0.16015625,-0.41015625,9.87109375,0.0,0.0,0.0,-0.01898193359375,-0.01202392578125,0.19818115234375,0.97991943359375,-0.20564299114464718,0.10169756818250313,-3.8204614286298813
108,4.3600545750014135,bno085,0.16015625,-0.41015625,9.83203125,0.0,0.0,0.0,-0.01898193359375,-0.01202392578125,0.19818115234375,0.97991943359375,-0.20564299114464718,0.10169756818250313,-3.8204614286298813
109,4.400056450002012,bno085,0.16015625,-0.41015625,9.83203125,0.0,0.0,0.0,-0.01898193359375,-0.01202392578125,0.19818115234375,0.97991943359375,-0.20564299114464718,0.10169756818250313,-3.8204614286298813
110,4.440057567000622,bno085,0.16015625,-0.41015625,9.87109375,0.0,0.0,0.0,-0.01898193359375,-0.01202392578125,0.19818115234375,0.97991943359375,-0.20564299114464718,0.10169756818250313,-3.8204614286298813
111,4.480054663999908,bno085,0.16015625,-0.44921875,9.8671875,0.0,0.0,0.0,-0.01898193359375,-0.01202392578125,0.19818115234375,0.97991943359375,-0.20564299114464718,0.10169756818250313,-3.8204614286298813
112,4.5200548360007815,bno085,0.16015625,-0.41015625,9.87109375,0.0,0.0,0.0,-0.01898193359375,-0.01202392578125,0.19818115234375,0.97991943359375,-0.20564299114464718,0.10169756818250313,-3.8204614286298813
113,4.560059081999498,bno085,0.16015625,-0.41015625,9.87109375,0.0,0.0,0.0,-0.01898193359375,-0.01202392578125,0.19818115234375,0.97991943359375,-0.20564299114464718,0.10169756818250313,-3.8204614286298813
114,4.600058846001048,bno085,0.16015625,-0.41015625,9.83203125,0.0,0.0,0.0,-0.01898193359375,-0.01202392578125,0.19818115234375,0.97991943359375,-0.20564299114464718,0.10169756818250313,-3.8204614286298813
115,4.640058054999827,bno085,0.16015625,-0.41015625,9.87109375,0.0,0.0,0.0,-0.01898193359375,-0.01202392578125,0.19818115234375,0.97991943359375,-0.20564299114464718,0.10169756818250313,-3.8204614286298813
116,4.68005933799941,bno085,0.16015625,-0.41015625,9.87109375,0.0,0.0,0.0,-0.01898193359375,-0.01202392578125,0.19818115234375,0.97991943359375,-0.20564299114464718,0.10169756818250313,-3.8204614286298813
117,4.720058787999733,bno085,0.16015625,-0.41015625,9.87109375,0.0,0.0,0.0,-0.01898193359375,-0.01202392578125,0.19818115234375,0.97991943359375,-0.20564299114464718,0.10169756818250313,-3.8204614286298813
118,4.760060256001452,bno085,0.16015625,-0.41015625,9.83203125,0.0,0.0,0.0,-0.01898193359375,-0.01202392578125,0.19818115234375,0.97991943359375,-0.20564299114464718,0.10169756818250313,-3.8204614286298813
119,4.800059187000443,bno085,0.16015625,-0.41015625,9.87109375,0.0,0.0,0.0,-0.01898193359375,-0.011962890625,0.19818115234375,0.97991943359375,-0.2042540056018172,0.10855414131665132,-3.820385729265864
120,4.840059562000533,bno085,0.16015625,-0.41015625,9.83203125,0.0,0.0,0.0,-0.01898193359375,-0.011962890625,0.19818115234375,0.97991943359375,-0.2042540056018172,0.10855414131665132,-3.820385729265864
121,4.880057530001068,bno085,0.16015625,-0.41015625,9.83203125,0.0,0.0,0.0,-0.01898193359375,-0.011962890625,0.19818115234375,0.97991943359375,-0.2042540056018172,0.10855414131665132,-3.820385729265864
122,4.920057850002195,bno085,0.16015625,-0.41015625,9.87109375,0.0,0.0,0.0,-0.01898193359375,-0.011962890625,0.19818115234375,0.97991943359375,-0.2042540056018172,0.10855414131665132,-3.820385729265864
123,4.960059189001186,bno085,0.16015625,-0.41015625,9.83203125,0.0,0.0,0.0,-0.01898193359375,-0.011962890625,0.19818115234375,0.97991943359375,-0.2042540056018172,0.10855414131665132,-3.820385729265864
