sample,time_s,sensor,accel_x_mps2,accel_y_mps2,accel_z_mps2,gyro_x_radps,gyro_y_radps,gyro_z_radps,quat_i,quat_j,quat_k,quat_real,roll_deg,pitch_deg,yaw_deg
0,0.04005599899937806,bno085,0.14453125,-0.31640625,9.59375,-0.00390625,0.00390625,-0.001953125,-0.02081298828125,-0.01385498046875,0.10260009765625,0.994384765625,-1.5317583447941262e-05,2.301011434250056e-05,3.1072610773581095e-06
1,0.0800557940001454,bno085,0.18359375,-0.35546875,9.55859375,0.005859375,0.0,0.0,-0.02069091796875,-0.0137939453125,0.102294921875,0.99444580078125,0.014156361771737382,0.006276909487902924,-0.0349295914710381
2,0.12005407099968579,bno085,0.22265625,-0.390625,9.59765625,0.0,0.001953125,0.0,-0.02069091796875,-0.0137939453125,0.102294921875,0.99444580078125,0.014156361771737382,0.006276909487902924,-0.0349295914710381
3,0.16005529199901503,bno085,0.18359375,-0.31640625,9.55859375,0.0,0.00390625,0.0,-0.0206298828125,-0.01373291015625,0.102294921875,0.99444580078125,0.021836305034571013,0.012524321586602175,-0.03492823583083051
4,0.20005514299919014,bno085,0.18359375,-0.390625,9.59375,0.0,0.00390625,0.0,-0.0205078125,-0.013671875,0.102294921875,0.99444580078125,0.03647688040092978,0.018060792177098252,-0.035051048996727785
5,0.24005390199999965,bno085,0.18359375,-0.31640625,9.59375,0.021484375,0.03515625,0.00390625,-0.0201416015625,-0.0133056640625,0.10235595703125,0.99444580078125,0.08262792813418413,0.055370575998985566,-0.02791288143181872
6,0.2800538819992653,bno085,0.18359375,-0.35546875,9.55859375,0.005859375,-0.013671875,0.0,-0.02008056640625,-0.0133056640625,0.10235595703125,0.99444580078125,0.08958831624252672,0.05465916906593925,-0.028035571798033777
7,0.32005343699893274,bno085,0.18359375,-0.390625,9.55859375,0.00390625,-0.009765625,0.0,-0.02008056640625,-0.0133056640625,0.10235595703125,0.99444580078125,0.08958831624252672,0.05465916906593925,-0.028035571798033777
8,0.36005436099912913,bno085,0.18359375,-0.390625,9.59375,0.005859375,-0.0078125,0.0,-0.01995849609375,-0.01318359375,0.102294921875,0.99444580078125,0.10487381977898155,0.06732631766333909,-0.03511433145822908
9,0.4000551199987967,bno085,0.18359375,-0.35546875,9.55859375,0.005859375,-0.0078125,0.0,-0.01983642578125,-0.01312255859375,0.102294921875,0.99444580078125,0.11951332742402528,0.07286207104336201,-0.03522347605673348
10,0.44005424799979664,bno085,0.18359375,-0.35546875,9.59375,0.0,-0.001953125,0.0,-0.01971435546875,-0.01300048828125,0.102294921875,0.99444580078125,0.13487164410324773,0.08535542765427608,-0.035195066717781
11,0.480054191999443,bno085,0.14453125,-0.35546875,9.55859375,0.00390625,-0.00390625,0.001953125,-0.01959228515625,-0.012939453125,0.102294921875,0.99444580078125,0.14951078419096192,0.09089093752851944,-0.03529951595636561
12,0.5200546910000412,bno085,0.18359375,-0.35546875,9.59375,0.0,-0.001953125,0.0,-0.01959228515625,-0.012939453125,0.102294921875,0.99444580078125,0.14951078419096192,0.09089093752851944,-0.03529951595636561
13,0.5600536709989683,bno085,0.18359375,-0.35546875,9.55859375,0.00390625,-0.001953125,0.0,-0.01953125,-0.01287841796875,0.102294921875,0.9945068359375,0.15707608051181843,0.09701989764209035,-0.03458648555786214
14,0.6000545959996089,bno085,0.14453125,-0.35546875,9.59375,0.00390625,-0.001953125,0.0,-0.0194091796875,-0.01275634765625,0.102294921875,0.9945068359375,0.172434737408441,0.1095136006610611,-0.03454913599876468
15,0.6400548729998263,bno085,0.18359375,-0.35546875,9.55859375,0.001953125,-0.001953125,0.001953125,-0.01934814453125,-0.0126953125,0.102294921875,0.9945068359375,0.18011398813251078,0.11576036403433927,-0.03452894863186786
16,0.6800543350000225,bno085,0.14453125,-0.35546875,9.59375,0.0,0.0,0.0,-0.01922607421875,-0.01263427734375,0.10235595703125,0.9945068359375,0.19483136156564423,0.12111651588678635,-0.027525392518382596
17,0.7200545380001131,bno085,0.18359375,-0.35546875,9.55859375,0.00390625,0.0,0.0,-0.0191650390625,-0.01251220703125,0.102294921875,0.9945068359375,0.20315143432614574,0.13450030248290534,-0.034462336162378746
18,0.7600549809994845,bno085,0.18359375,-0.35546875,9.59375,0.001953125,0.0,0.0,-0.0191650390625,-0.01251220703125,0.102294921875,0.9945068359375,0.20315143432614574,0.13450030248290534,-0.034462336162378746
19,0.800054129000273,bno085,0.14453125,-0.35546875,9.55859375,-0.00390625,0.0,0.0,-0.01904296875,-0.012451171875,0.102294921875,0.9945068359375,0.21779060015469806,0.14003561911539852,-0.03455494098455601
20,0.8400548310000886,bno085,0.18359375,-0.35546875,9.55859375,-0.00390625,0.0,0.0,-0.01898193359375,-0.0123291015625,0.102294921875,0.9945068359375,0.22618843015922382,0.15323971495392189,-0.03438664810243061
21,0.8800548299986986,bno085,0.14453125,-0.35546875,9.59375,0.001953125,0.0,0.001953125,-0.01885986328125,-0.01220703125,0.102294921875,0.9945068359375,0.24154618264599884,0.1657323653629246,-0.03433114737534603
22,0.9200549589986622,bno085,0.18359375,-0.35546875,9.55859375,0.03125,0.05078125,0.005859375,-0.01806640625,-0.01092529296875,0.1024169921875,0.9945068359375,0.3472972287663254,0.3022093151813257,-0.01845323508169319
23,0.9600546059991757,bno085,0.14453125,-0.31640625,9.55859375,0.021484375,0.0078125,0.0078125,-0.01806640625,-0.01092529296875,0.1024169921875,0.9945068359375,0.3472972287663254,0.3022093151813257,-0.01845323508169319
24,1.0000535679992026,bno085,0.109375,-0.31640625,9.59375,0.017578125,0.091796875,0.005859375,-0.01727294921875,-0.00958251953125,0.10260009765625,0.9945068359375,0.4538964850950136,0.4454077269530609,0.004992196826286123
25,1.040054955999949,bno085,0.14453125,-0.390625,9.59375,0.017578125,0.091796875,0.005859375,-0.01617431640625,-0.0087890625,0.1026611328125,0.99456787109375,0.5885379016369354,0.5226872819169726,0.013262841332369822
26,1.0800538809999125,bno085,0.0703125,-1.04296875,9.55859375,0.0859375,0.10546875,-0.158203125,-0.01556396484375,-0.00750732421875,0.0999755859375,0.99481201171875,0.6679004579496978,0.6702900627410593,-0.2934738237748173
27,1.120054805998734,bno085,0.18359375,0.06640625,9.5234375,-0.033203125,-0.25390625,1.1484375,-0.01580810546875,-0.01177978515625,0.123291015625,0.9921875,0.6246118733135093,0.11172879638323542,2.3822764226090647
28,1.1600561939994805,bno085,0.875,0.6796875,9.55859375,-0.01171875,0.013671875,-0.044921875,-0.01580810546875,-0.01177978515625,0.123291015625,0.9921875,0.6246118733135093,0.11172879638323542,2.3822764226090647
29,1.2000534149992745,bno085,0.14453125,-0.35546875,9.55859375,0.005859375,0.001953125,-0.00390625,-0.01629638671875,-0.01214599609375,0.1280517578125,0.9915771484375,0.5700582926832043,0.061793362319557905,2.931831296925426
30,1.2400547849993018,bno085,0.18359375,-0.31640625,9.55859375,0.005859375,0.001953125,-0.00390625,-0.0162353515625,-0.01202392578125,0.1279296875,0.9915771484375,0.5786577114357353,0.07519657044089621,2.9177121545484144
31,1.2800557099999423,bno085,0.18359375,-0.35546875,9.55859375,-0.00390625,0.0,-0.00390625,-0.01629638671875,-0.011962890625,0.1278076171875,0.9915771484375,0.5724804115476304,0.08344410970371459,2.903676200090546
32,1.3200546349999058,bno085,0.18359375,-0.31640625,9.55859375,0.001953125,0.0,-0.001953125,-0.01629638671875,-0.01190185546875,0.127685546875,0.99163818359375,0.5731541281787615,0.0906835451892194,2.890378803428877
33,1.3600550779992773,bno085,0.18359375,-0.31640625,9.55859375,0.001953125,0.001953125,0.001953125,-0.01629638671875,-0.01190185546875,0.127685546875,0.99163818359375,0.5731541281787615,0.0906835451892194,2.890378803428877
34,1.4000544659993466,bno085,0.18359375,-0.31640625,9.55859375,0.0,0.021484375,-0.0703125,-0.01629638671875,-0.0118408203125,0.127685546875,0.99163818359375,0.5740498473184713,0.09762019213954498,2.8905412539699027
35,1.4400539839989506,bno085,0.3359375,-0.546875,9.59375,0.0,0.021484375,-0.0703125,-0.01605224609375,-0.01116943359375,0.12591552734375,0.9918212890625,0.6092497555772698,0.17616881125697625,2.6868819386403024
36,1.480053704999591,bno085,0.14453125,-0.23828125,9.5546875,0.029296875,0.04296875,-0.14453125,-0.01580810546875,-0.01031494140625,0.12255859375,0.9923095703125,0.644217226642101,0.2806207874053877,2.3022127891753876
37,1.5200547779986664,bno085,0.0703125,-0.23828125,9.59375,0.01171875,-0.005859375,0.01953125,-0.01580810546875,-0.0103759765625,0.12274169921875,0.99224853515625,0.6436870654043952,0.2731506131577808,2.3226541271894816
38,1.5600544440003432,bno085,0.18359375,-0.31640625,9.59375,0.0,0.0,-0.005859375,-0.01580810546875,-0.0103759765625,0.12274169921875,0.99224853515625,0.6436870654043952,0.2731506131577808,2.3226541271894816
39,1.6000555909995455,bno085,0.14453125,-0.23828125,9.5546875,0.001953125,0.005859375,-0.001953125,-0.0157470703125,-0.01025390625,0.12255859375,0.9923095703125,0.6520202388520395,0.286707999655508,2.3022758057804866
40,1.640054904999488,bno085,0.14453125,-0.31640625,9.55859375,0.001953125,0.005859375,-0.001953125,-0.0157470703125,-0.01019287109375,0.12237548828125,0.9923095703125,0.6526294543987075,0.2942847461162866,2.2810085427300195
41,1.6800544599991554,bno085,0.14453125,-0.31640625,9.55859375,-0.005859375,0.0,-0.00390625,-0.0157470703125,-0.01019287109375,0.122314453125,0.9923095703125,0.6525457637719992,0.2944967622723143,2.2738625797969703
42,1.720054680999965,bno085,0.18359375,-0.31640625,9.59375,0.001953125,0.0,0.0,-0.01580810546875,-0.01019287109375,0.122314453125,0.9923095703125,0.6456028493589666,0.2953484366291381,2.2739702780450672
43,1.760054272999696,bno085,0.18359375,-0.31640625,9.55859375,0.00390625,0.001953125,-0.00390625,-0.01580810546875,-0.01019287109375,0.122314453125,0.9923095703125,0.6456028493589666,0.2953484366291381,2.2739702780450672
44,1.8000545679988136,bno085,0.14453125,-0.31640625,9.55859375,0.001953125,0.0,0.00390625,-0.01580810546875,-0.0101318359375,0.1220703125,0.9923095703125,0.646124458062924,0.303135054996239,2.2455599314020183
45,1.840055881999433,bno085,0.14453125,-0.31640625,9.59375,0.001953125,0.0,0.00390625,-0.01580810546875,-0.01007080078125,0.12200927734375,0.99237060546875,0.6468131248979577,0.31018374464729553,2.2394107468490514
46,1.8800557140002638,bno085,0.14453125,-0.31640625,9.55859375,0.0,-0.001953125,0.0,-0.0157470703125,-0.01007080078125,0.12200927734375,0.99237060546875,0.653756447062195,0.3093341680933678,2.239303973149848
47,1.9200548249991698,bno085,0.14453125,-0.31640625,9.59375,0.001953125,0.0,0.0,-0.01568603515625,-0.01007080078125,0.12200927734375,0.99237060546875,0.6606997449541752,0.3084845915996733,2.2391971994554334
48,1.9600544160002755,bno085,0.14453125,-0.31640625,9.59375,0.001953125,-0.001953125,-0.001953125,-0.01568603515625,-0.01007080078125,0.12200927734375,0.99237060546875,0.6606997449541752,0.3084845915996733,2.2391971994554334
49,2.0000555449987587,bno085,0.14453125,-0.31640625,9.55859375,0.0,0.0,0.0,-0.015625,-0.01007080078125,0.12200927734375,0.99237060546875,0.6676430186800962,0.30763501516611474,2.2390904257658084
50,2.040053896000245,bno085,0.14453125,-0.31640625,9.59375,0.0,0.0,0.0,-0.015625,-0.01007080078125,0.1219482421875,0.99237060546875,0.667558264761503,0.307847737795528,2.231945303535726
51,2.080055079999511,bno085,0.14453125,-0.31640625,9.55859375,0.0,-0.001953125,0.0,-0.01556396484375,-0.0101318359375,0.1219482421875,0.99237060546875,0.6736456921554275,0.3000577215666569,2.2316650951547223
52,2.120054134999009,bno085,0.14453125,-0.31640625,9.59375,0.0,0.0,-0.001953125,-0.0155029296875,-0.0101318359375,0.1219482421875,0.99237060546875,0.6805889271200144,0.29920858856856575,2.2315579271014285
53,2.1600551159990573,bno085,0.14453125,-0.31640625,9.55859375,0.005859375,0.001953125,0.0,-0.0155029296875,-0.0101318359375,0.1219482421875,0.99237060546875,0.6805889271200144,0.29920858856856575,2.2315579271014285
54,2.2000565589987673,bno085,0.18359375,-0.31640625,9.55859375,-0.001953125,0.0,0.0,-0.0155029296875,-0.01007080078125,0.1219482421875,0.99237060546875,0.6814447402567199,0.3061494377495698,2.2317317949064717
55,2.240055817999746,bno085,0.14453125,-0.31640625,9.59375,-0.001953125,0.0,0.0,-0.01544189453125,-0.010009765625,0.1219482421875,0.99237060546875,0.6892437574576984,0.3122410973207621,2.2317995285058796
56,2.280055354000069,bno085,0.18359375,-0.31640625,9.55859375,0.00390625,-0.005859375,0.013671875,-0.01544189453125,-0.01007080078125,0.12200927734375,0.99237060546875,0.688472695923517,0.30508628622527206,2.2387701047256825
57,2.320055352998679,bno085,0.18359375,-0.31640625,9.59375,0.001953125,0.0,-0.001953125,-0.01544189453125,-0.01007080078125,0.12200927734375,0.99237060546875,0.688472695923517,0.30508628622527206,2.2387701047256825
58,2.3600552409989177,bno085,0.14453125,-0.31640625,9.55859375,-0.001953125,-0.001953125,0.0,-0.01544189453125,-0.01007080078125,0.12200927734375,0.99237060546875,0.688472695923517,0.30508628622527206,2.2387701047256825
59,2.400054646999706,bno085,0.14453125,-0.31640625,9.55859375,0.001953125,0.0,0.0,-0.01544189453125,-0.01007080078125,0.12200927734375,0.99237060546875,0.688472695923517,0.30508628622527206,2.2387701047256825
60,2.4400549059992045,bno085,0.14453125,-0.31640625,9.59375,0.001953125,0.0,0.0,-0.01544189453125,-0.01007080078125,0.1219482421875,0.99237060546875,0.6883879421769484,0.3053002878165752,2.231625040599054
61,2.4800543309993373,bno085,0.14453125,-0.31640625,9.59375,0.0,0.0,-0.001953125,-0.01544189453125,-0.0101318359375,0.1219482421875,0.99237060546875,0.6875321382474512,0.29835945562898514,2.231450759052574
62,2.520054163000168,bno085,0.14453125,-0.31640625,9.55859375,-0.001953125,0.0,-0.001953125,-0.01544189453125,-0.0101318359375,0.1219482421875,0.99237060546875,0.6875321382474512,0.29835945562898514,2.231450759052574
63,2.560055810999984,bno085,0.18359375,-0.31640625,9.59375,0.0,-0.001953125,-0.001953125,-0.01544189453125,-0.0101318359375,0.1219482421875,0.99237060546875,0.6875321382474512,0.29835945562898514,2.231450759052574
64,2.600057198998911,bno085,0.18359375,-0.31640625,9.55859375,0.0,0.001953125,0.001953125,-0.015380859375,-0.0101318359375,0.1219482421875,0.99237060546875,0.694475325643943,0.2975103227478138,2.2313435910081587
65,2.640055050000228,bno085,0.14453125,-0.31640625,9.59375,0.0,0.001953125,0.001953125,-0.01544189453125,-0.0101318359375,0.1219482421875,0.99237060546875,0.6875321382474512,0.29835945562898514,2.231450759052574
66,2.6800577710000653,bno085,0.18359375,-0.31640625,9.55859375,0.001953125,0.001953125,0.0,-0.01544189453125,-0.0101318359375,0.1219482421875,0.99237060546875,0.6875321382474512,0.29835945562898514,2.231450759052574
67,2.7200566960000288,bno085,0.18359375,-0.31640625,9.59375,-0.001953125,0.0,0.001953125,-0.015380859375,-0.01019287109375,0.1219482421875,0.99237060546875,0.6936195423476472,0.29056948475463545,2.231169102070617
68,2.760056084000098,bno085,0.14453125,-0.31640625,9.55859375,0.0,0.001953125,0.001953125,-0.015380859375,-0.01019287109375,0.1219482421875,0.99237060546875,0.6936195423476472,0.29056948475463545,2.231169102070617
69,2.800055842999427,bno085,0.14453125,-0.31640625,9.59375,-0.00390625,-0.001953125,0.001953125,-0.015380859375,-0.01019287109375,0.1219482421875,0.99237060546875,0.6936195423476472,0.29056948475463545,2.231169102070617
70,2.8400556939996022,bno085,0.14453125,-0.31640625,9.55859375,-0.00390625,-0.001953125,0.001953125,-0.015380859375,-0.01019287109375,0.1219482421875,0.99237060546875,0.6936195423476472,0.29056948475463545,2.231169102070617
71,2.880053932998635,bno085,0.14453125,-0.31640625,9.59375,-0.001953125,-0.001953125,0.001953125,-0.015380859375,-0.01025390625,0.12200927734375,0.99237060546875,0.692847245655455,0.28341419652190014,2.2381398503606396
72,2.9200548589997197,bno085,0.14453125,-0.31640625,9.55859375,0.0,0.0,0.0,-0.015380859375,-0.01025390625,0.1219482421875,0.99237060546875,0.6927637704271314,0.2836286238623474,2.230994819475849
73,2.960054338998816,bno085,0.14453125,-0.31640625,9.55859375,-0.001953125,0.0,0.0,-0.015380859375,-0.01025390625,0.1219482421875,0.99237060546875,0.6927637704271314,0.2836286238623474,2.230994819475849
74,3.0000544309987163,bno085,0.14453125,-0.31640625,9.55859375,-0.001953125,-0.001953125,0.001953125,-0.015380859375,-0.01031494140625,0.1219482421875,0.99237060546875,0.6919080098445508,0.2766877399693976,2.230820743215902
75,3.0400543750001816,bno085,0.18359375,-0.31640625,9.59375,-0.001953125,-0.001953125,0.001953125,-0.015380859375,-0.01031494140625,0.1219482421875,0.99237060546875,0.6919080098445508,0.2766877399693976,2.230820743215902
76,3.080054502999701,bno085,0.14453125,-0.31640625,9.59375,0.00390625,0.0,0.001953125,-0.0152587890625,-0.01025390625,0.1219482421875,0.99237060546875,0.7066501120059312,0.2819304261584294,2.23077882842108
77,3.1200556320000032,bno085,0.18359375,-0.35546875,9.55859375,0.001953125,0.001953125,0.0,-0.0152587890625,-0.01025390625,0.1219482421875,0.99237060546875,0.7066501120059312,0.2819304261584294,2.23077882842108
78,3.1600561129998823,bno085,0.18359375,-0.31640625,9.55859375,-0.00390625,-0.001953125,0.0,-0.0152587890625,-0.01025390625,0.1219482421875,0.99237060546875,0.7066501120059312,0.2819304261584294,2.23077882842108
79,3.200054167999042,bno085,0.14453125,-0.31640625,9.55859375,-0.00390625,0.001953125,0.0,-0.01531982421875,-0.01025390625,0.1219482421875,0.99237060546875,0.6997069529634304,0.2827795249827337,2.2308868239466153
80,3.2400556479988154,bno085,0.18359375,-0.31640625,9.59375,-0.00390625,0.001953125,0.0,-0.0155029296875,-0.010009765625,0.099853515625,0.99481201171875,0.6458572649928925,0.38474457410415236,-0.3149811594857576
81,3.280055850998906,bno085,0.18359375,-0.31640625,9.59375,0.001953125,0.0,-0.001953125,-0.0155029296875,-0.010009765625,0.09747314453125,0.99505615234375,0.6416770102409174,0.39230999605187733,-0.5888882252440262
82,3.32005488699906,bno085,0.18359375,-0.31640625,9.55859375,0.00390625,0.0,-0.001953125,-0.01544189453125,-0.010009765625,0.09747314453125,0.99505615234375,0.6486389693902394,0.3916317935272396,-0.5889868382971445
83,3.360055385999658,bno085,0.14453125,-0.31640625,9.55859375,0.001953125,0.001953125,0.0,-0.01544189453125,-0.010009765625,0.09747314453125,0.99505615234375,0.6486389693902394,0.3916317935272396,-0.5889868382971445
84,3.4000570890002564,bno085,0.14453125,-0.31640625,9.59375,-0.001953125,0.0,0.0,-0.01544189453125,-0.010009765625,0.09747314453125,0.99505615234375,0.6486389693902394,0.3916317935272396,-0.5889868382971445
85,3.440055476999987,bno085,0.18359375,-0.31640625,9.59375,-0.001953125,0.0,0.0,-0.0155029296875,-0.010009765625,0.09747314453125,0.99505615234375,0.6416770102409174,0.39230999605187733,-0.5888882252440262
86,3.480054827999993,bno085,0.18359375,-0.31640625,9.59375,-0.005859375,0.0,0.001953125,-0.01556396484375,-0.010009765625,0.09747314453125,0.99505615234375,0.6347150266190542,0.3929881986234334,-0.5887896121820912
87,3.5200554019993433,bno085,0.14453125,-0.31640625,9.55859375,-0.001953125,0.0,0.0,-0.015625,-0.010009765625,0.097412109375,0.99505615234375,0.6276540083538847,0.3938689266950899,-0.5957808638416251
88,3.5600553269996453,bno085,0.18359375,-0.31640625,9.55859375,0.001953125,0.0,-0.001953125,-0.015625,-0.010009765625,0.097412109375,0.99505615234375,0.6276540083538847,0.3938689266950899,-0.5957808638416251
89,3.600056195999059,bno085,0.14453125,-0.31640625,9.59375,0.001953125,0.0,0.0,-0.015625,-0.010009765625,0.09747314453125,0.99505615234375,0.627753018419268,0.3936664012419099,-0.5886909991113403
90,3.6400559729991073,bno085,0.14453125,-0.31640625,9.55859375,0.001953125,0.0,0.0,-0.015625,-0.010009765625,0.09747314453125,0.99505615234375,0.627753018419268,0.3936664012419099,-0.5886909991113403
91,3.680057842999304,bno085,0.18359375,-0.31640625,9.55859375,0.0,0.0,0.0,-0.015625,-0.01007080078125,0.097412109375,0.99505615234375,0.6269694942452972,0.3869092473151915,-0.5959527631178781
92,3.720059379000304,bno085,0.14453125,-0.31640625,9.59375,0.001953125,0.001953125,-0.001953125,-0.015625,-0.010009765625,0.097412109375,0.99505615234375,0.6276540083538847,0.3938689266950899,-0.5957808638416251
93,3.7600575639989984,bno085,0.18359375,-0.31640625,9.59375,0.00390625,0.0,0.0,-0.015625,-0.010009765625,0.097412109375,0.99505615234375,0.6276540083538847,0.3938689266950899,-0.5957808638416251
94,3.8000575070000195,bno085,0.18359375,-0.31640625,9.59375,0.0,0.0,0.001953125,-0.015625,-0.010009765625,0.09747314453125,0.99505615234375,0.627753018419268,0.3936664012419099,-0.5886909991113403
95,3.840058024999962,bno085,0.14453125,-0.31640625,9.59375,0.0,0.0,0.001953125,-0.015625,-0.010009765625,0.09747314453125,0.99505615234375,0.627753018419268,0.3936664012419099,-0.5886909991113403
96,3.880058079999799,bno085,0.18359375,-0.31640625,9.55859375,-0.001953125,0.0,0.0,-0.015625,-0.010009765625,0.09747314453125,0.99505615234375,0.627753018419268,0.3936664012419099,-0.5886909991113403
97,3.9200582269986626,bno085,0.18359375,-0.31640625,9.59375,0.005859375,-0.00390625,0.001953125,-0.015625,-0.01007080078125,0.09747314453125,0.99505615234375,0.6270680780937252,0.38670672207157974,-0.5888629043767586
98,3.9600578749996203,bno085,0.18359375,-0.31640625,9.59375,0.00390625,0.0,0.001953125,-0.015625,-0.01007080078125,0.09747314453125,0.99505615234375,0.6270680780937252,0.38670672207157974,-0.5888629043767586
99,4.000057706998632,bno085,0.14453125,-0.31640625,9.55859375,-0.00390625,0.0,0.0,-0.01568603515625,-0.01007080078125,0.09747314453125,0.99505615234375,0.6201060373407149,0.3873849077233318,-0.588763872973608
100,4.0400579839988495,bno085,0.14453125,-0.31640625,9.59375,-0.00390625,0.0,0.0,-0.01568603515625,-0.01007080078125,0.09747314453125,0.99505615234375,0.6201060373407149,0.3873849077233318,-0.588763872973608
101,4.080058038998686,bno085,0.14453125,-0.31640625,9.55859375,-0.001953125,0.001953125,-0.001953125,-0.0157470703125,-0.01007080078125,0.097412109375,0.99505615234375,0.6130453877911811,0.38826476601046006,-0.5957547384270186
102,4.120058574999348,bno085,0.18359375,-0.31640625,9.59375,0.0078125,-0.005859375,0.0,-0.01568603515625,-0.01007080078125,0.097412109375,0.99505615234375,0.6200074534085029,0.38758700663977314,-0.5958537507767344
103,4.160059481999269,bno085,0.14453125,-0.31640625,9.59375,0.00390625,0.0,0.0,-0.01568603515625,-0.01007080078125,0.097412109375,0.99505615234375,0.6200074534085029,0.38758700663977314,-0.5958537507767344
104,4.200057574000311,bno085,0.18359375,-0.31640625,9.59375,0.001953125,0.001953125,0.0,-0.01568603515625,-0.01007080078125,0.097412109375,0.99505615234375,0.6200074534085029,0.38758700663977314,-0.5958537507767344
105,4.240059128000212,bno085,0.18359375,-0.31640625,9.59375,0.001953125,0.001953125,0.0,-0.015625,-0.01007080078125,0.097412109375,0.99505615234375,0.6269694942452972,0.3869092473151915,-0.5959527631178781
106,4.280059052998695,bno085,0.14453125,-0.31640625,9.55859375,-0.005859375,0.0,0.0,-0.015625,-0.01007080078125,0.097412109375,0.99505615234375,0.6269694942452972,0.3869092473151915,-0.5959527631178781
107,4.320057144999737,bno085,0.18359375,-0.31640625,9.55859375,0.0078125,0.001953125,0.0,-0.01556396484375,-0.01007080078125,0.097412109375,0.99505615234375,0.6339315104069407,0.3862314880367134,-0.5960517754504494
108,4.360057681999024,bno085,0.14453125,-0.31640625,9.59375,0.005859375,0.0,0.0,-0.01556396484375,-0.01007080078125,0.097412109375,0.99505615234375,0.6339315104069407,0.3862314880367134,-0.5960517754504494
109,4.400057773000299,bno085,0.18359375,-0.31640625,9.59375,0.00390625,0.001953125,0.0,-0.0155029296875,-0.01007080078125,0.097412109375,0.99505615234375,0.640893501998813,0.38555372880433664,-0.5961507877744476
110,4.440058494999903,bno085,0.18359375,-0.31640625,9.59375,0.00390625,0.001953125,0.0,-0.01544189453125,-0.01007080078125,0.097412109375,0.99505615234375,0.6478554691262949,0.3848759696180581,-0.5962498000898722
111,4.480056586999126,bno085,0.14453125,-0.31640625,9.59375,-0.001953125,0.0,0.0,-0.01544189453125,-0.01007080078125,0.097412109375,0.99505615234375,0.6478554691262949,0.3848759696180581,-0.5962498000898722
112,4.520057937999809,bno085,0.14453125,-0.31640625,9.59375,-0.001953125,-0.001953125,0.0,-0.015380859375,-0.0101318359375,0.097412109375,0.99505615234375,0.654132940216397,0.37723857764598573,-0.5965222197031369
113,4.560057362999942,bno085,0.18359375,-0.31640625,9.59375,0.00390625,-0.001953125,0.0,-0.015380859375,-0.0101318359375,0.097412109375,0.99505615234375,0.654132940216397,0.37723857764598573,-0.5965222197031369
114,4.600057288000244,bno085,0.14453125,-0.31640625,9.59375,0.001953125,0.001953125,0.0,-0.01531982421875,-0.0101318359375,0.097412109375,0.99505615234375,0.6610948667500764,0.37656083555109165,-0.5966216503378468
115,4.640057880000313,bno085,0.14453125,-0.31640625,9.55859375,0.001953125,0.001953125,0.0,-0.015380859375,-0.0101318359375,0.091552734375,0.99560546875,0.6437723957311712,0.39585875772492957,-1.2707690886573693
116,4.680057600999135,bno085,0.14453125,-0.31640625,9.55859375,-0.00390625,0.00390625,0.0,-0.01531982421875,-0.0101318359375,0.090576171875,0.9957275390625,0.6489368087426165,0.3982629351976404,-1.3828603393859469
117,4.720056971000304,bno085,0.14453125,-0.31640625,9.59375,-0.001953125,0.001953125,-0.001953125,-0.01531982421875,-0.0101318359375,0.090576171875,0.9957275390625,0.6489368087426165,0.3982629351976404,-1.3828603393859469
118,4.760057506999146,bno085,0.14453125,-0.31640625,9.59375,-0.00390625,0.00390625,0.0,-0.01531982421875,-0.0101318359375,0.090576171875,0.9957275390625,0.6489368087426165,0.3982629351976404,-1.3828603393859469
119,4.800057709999237,bno085,0.18359375,-0.31640625,9.55859375,-0.0078125,0.001953125,0.0,-0.01531982421875,-0.01007080078125,0.090576171875,0.9957275390625,0.6495735372295283,0.40522725885564215,-1.3826869767465464
120,4.84005844999956,bno085,0.14453125,-0.31640625,9.59375,-0.0078125,0.001953125,0.0,-0.015380859375,-0.01007080078125,0.090576171875,0.9957275390625,0.642606925427299,0.4058572668625105,-1.3825900951767927
121,4.880058265000116,bno085,0.18359375,-0.31640625,9.59375,0.00390625,0.00390625,0.0,-0.01531982421875,-0.010009765625,0.090576171875,0.9957275390625,0.6502102764796703,0.4121915613353563,-1.3825134602901106
122,4.920056670998747,bno085,0.14453125,-0.31640625,9.59375,-0.00390625,0.0,-0.001953125,-0.01531982421875,-0.010009765625,0.090576171875,0.9957275390625,0.6502102764796703,0.4121915613353563,-1.3825134602901106
123,4.96005813299962,bno085,0.14453125,-0.31640625,9.59375,0.0,0.001953125,0.0,-0.01531982421875,-0.010009765625,0.090576171875,0.9957275390625,0.6502102764796703,0.4121915613353563,-1.3825134602901106
124,5.000058817999161,bno085,0.14453125,-0.31640625,9.55859375,0.0,0.0,0.0,-0.01531982421875,-0.0098876953125,0.090576171875,0.9957275390625,0.6514837873828413,0.4261201031703738,-1.3821659658939887
125,5.04005698400033,bno085,0.14453125,-0.31640625,9.55859375,-0.001953125,0.0,0.001953125,-0.01531982421875,-0.0098876953125,0.09051513671875,0.9957275390625,0.6513800562369974,0.42632187172165076,-1.3892425554917736
126,5.080058871999427,bno085,0.18359375,-0.31640625,9.59375,-0.001953125,0.0,0.001953125,-0.01531982421875,-0.0098876953125,0.090576171875,0.9957275390625,0.6514837873828413,0.4261201031703738,-1.3821659658939887
127,5.1200587789990095,bno085,0.18359375,-0.31640625,9.55859375,0.001953125,-0.001953125,0.0,-0.015380859375,-0.0098876953125,0.090576171875,0.9957275390625,0.6445171980240276,0.42675016220177586,-1.3820703426183436
128,5.160058722000031,bno085,0.14453125,-0.31640625,9.59375,-0.00390625,0.0,0.001953125,-0.015380859375,-0.0098876953125,0.090576171875,0.9957275390625,0.6445171980240276,0.42675016220177586,-1.3820703426183436
129,5.200058888000058,bno085,0.14453125,-0.31640625,9.59375,-0.001953125,-0.001953125,0.0,-0.01544189453125,-0.0098876953125,0.090576171875,0.9957275390625,0.6375505842230276,0.4273802212760563,-1.3819747193329972
130,5.240059035999366,bno085,0.18359375,-0.31640625,9.59375,-0.001953125,-0.001953125,0.0,-0.01544189453125,-0.0098876953125,0.090576171875,0.9957275390625,0.6375505842230276,0.4273802212760563,-1.3819747193329972
131,5.280057886999202,bno085,0.18359375,-0.31640625,9.55859375,-0.00390625,0.001953125,-0.001953125,-0.01544189453125,-0.0098876953125,0.09051513671875,0.9957275390625,0.63744685289806,0.4275811371680727,-1.3890513468850405
132,5.320057237999208,bno085,0.18359375,-0.31640625,9.59375,0.00390625,0.00390625,0.001953125,-0.015380859375,-0.009765625,0.09051513671875,0.9957275390625,0.6456861830830614,0.4408799972826434,-1.3887996935234224
133,5.360058663000018,bno085,0.14453125,-0.31640625,9.59375,-0.009765625,-0.0078125,-0.001953125,-0.015380859375,-0.009765625,0.09051513671875,0.9957275390625,0.6456861830830614,0.4408799972826434,-1.3887996935234224
134,5.400058717999855,bno085,0.14453125,-0.31640625,9.59375,-0.009765625,0.041015625,0.00390625,-0.01507568359375,-0.00933837890625,0.090576171875,0.9957275390625,0.6850809936748724,0.48627667023165905,-1.380962018725636
135,5.440057439998782,bno085,-0.23828125,-0.73828125,9.63671875,-0.009765625,0.041015625,0.00390625,-0.01531982421875,-0.00909423828125,0.091796875,0.99560546875,0.6621145078442385,0.5127891283286393,-1.2395826618810664
136,5.480056697999316,bno085,0.4921875,-0.046875,9.55859375,0.005859375,-0.033203125,0.19140625,-0.015380859375,-0.0101318359375,0.0965576171875,0.99517822265625,0.6525832462024592,0.3799012658910081,-0.6944440596981776
137,5.520057363999513,bno085,0.109375,-0.31640625,9.59375,0.017578125,-0.013671875,-0.080078125,-0.015380859375,-0.00994873046875,0.0950927734375,0.99530029296875,0.65203805654665,0.40547737881711526,-0.862697090960992
138,5.5600614929990115,bno085,0.18359375,-0.31640625,9.55859375,0.013671875,-0.0234375,-0.01953125,-0.015380859375,-0.00994873046875,0.0950927734375,0.99530029296875,0.65203805654665,0.40547737881711526,-0.862697090960992
139,5.600057491999905,bno085,0.14453125,-0.31640625,9.55859375,0.00390625,-0.01171875,-0.01171875,-0.015380859375,-0.010009765625,0.0946044921875,0.995361328125,0.6504796027051035,0.40004574866691467,-0.91890143854382
140,5.640057065998917,bno085,0.22265625,-0.35546875,9.5546875,0.00390625,-0.01171875,-0.01171875,-0.01544189453125,-0.00994873046875,0.09423828125,0.995361328125,0.643573630228407,0.4088809114198371,-0.9611342915432382
141,5.680057138999473,bno085,0.30078125,-0.390625,9.55859375,0.00390625,0.013671875,-0.224609375,-0.015625,-0.0093994140625,0.09014892578125,0.99578857421875,0.6209055222223632,0.4862913164361564,-1.4292256484067563
142,5.720056730999204,bno085,-0.0078125,-0.23828125,9.59765625,0.0,0.001953125,-0.015625,-0.015625,-0.00921630859375,0.08837890625,0.99591064453125,0.6194635658285357,0.5127819987056556,-1.6326425814568815
143,5.760056896999231,bno085,0.14453125,-0.31640625,9.59375,0.00390625,-0.00390625,0.0,-0.015625,-0.00921630859375,0.08837890625,0.99591064453125,0.6194635658285357,0.5127819987056556,-1.6326425814568815
144,5.800056821999533,bno085,0.18359375,-0.35546875,9.59375,-0.013671875,-0.046875,0.09765625,-0.015625,-0.00927734375,0.08843994140625,0.99591064453125,0.6189511852358754,0.5056178522657816,-1.6257430164234823
145,5.840056674000152,bno085,0.18359375,-0.46875,9.59765625,-0.013671875,-0.046875,0.09765625,-0.01580810546875,-0.01007080078125,0.0902099609375,0.9957275390625,0.5932247404768834,0.41145706016084876,-1.4243700016410101
146,5.880058542999905,bno085,0.26171875,-0.23828125,9.55859375,0.013671875,-0.0546875,0.1796875,-0.015869140625,-0.010986328125,0.09375,0.99542236328125,0.5827221993599011,0.29660846175117833,-1.0193479442675217
147,5.920057301998895,bno085,0.14453125,-0.35546875,9.59375,0.001953125,-0.013671875,0.001953125,-0.0159912109375,-0.010986328125,0.09368896484375,0.99542236328125,0.5686982374858428,0.2981107167717352,-1.0262222733634117
148,5.96005702399998,bno085,0.18359375,-0.31640625,9.59375,0.00390625,-0.00390625,-0.001953125,-0.0159912109375,-0.010986328125,0.09368896484375,0.99542236328125,0.5686982374858428,0.2981107167717352,-1.0262222733634117
149,6.000056986000345,bno085,0.18359375,-0.31640625,9.55859375,0.001953125,-0.0078125,-0.001953125,-0.01605224609375,-0.01092529296875,0.09375,0.99542236328125,0.5624864924163371,0.3055269307286474,-1.0188691548243596
150,6.0400569299999916,bno085,0.109375,-0.125,9.59765625,0.001953125,-0.0078125,-0.001953125,-0.01605224609375,-0.0108642578125,0.09075927734375,0.99566650390625,0.5580771652881917,0.3217570998852553,-1.3630900780457742
151,6.080057076998855,bno085,0.14453125,-0.5078125,9.5546875,0.037109375,0.076171875,-0.32421875,-0.0157470703125,-0.0089111328125,0.08233642578125,0.9964599609375,0.596584423486091,0.5675345609965781,-2.326013830309866
152,6.120058094998967,bno085,0.22265625,-0.27734375,9.55859375,0.013671875,-0.017578125,-0.037109375,-0.01556396484375,-0.0087890625,0.08123779296875,0.99652099609375,0.6164745564337871,0.5832057381698916,-2.4524673137363435
153,6.1600580389986135,bno085,0.109375,-0.35546875,9.55859375,0.037109375,-0.064453125,0.072265625,-0.01495361328125,-0.009521484375,0.08245849609375,0.9964599609375,0.6816440317920925,0.48999599941613375,-2.314784753811628
154,6.200057537998873,bno085,0.26171875,-0.31640625,9.5546875,-0.005859375,-0.0078125,0.01171875,-0.01495361328125,-0.009521484375,0.08245849609375,0.9964599609375,0.6816440317920925,0.48999599941613375,-2.314784753811628
155,6.240057388999048,bno085,0.0703125,-0.31640625,9.63671875,-0.005859375,-0.0078125,0.01171875,-0.0147705078125,-0.010009765625,0.08331298828125,0.996337890625,0.6995879841000044,0.4298734001441197,-2.218732680595739
156,6.280065369999647,bno085,0.03125,-0.125,9.63671875,0.08984375,-0.05859375,0.197265625,-0.01287841796875,-0.01116943359375,0.08758544921875,0.99603271484375,0.9117302583951167,0.26485980591868513,-1.7335001252364757
157,6.320055128999229,bno085,-0.23828125,-0.9296875,9.40625,0.51953125,0.294921875,-1.404296875,-0.00531005859375,-0.00775146484375,0.072265625,0.997314453125,1.7783932129184725,0.6448052581321492,-3.49213404832689
158,6.360056591000102,bno085,0.375,-0.46875,9.52734375,0.11328125,-0.009765625,-0.095703125,-0.00238037109375,-0.00811767578125,0.0689697265625,0.99755859375,2.1032537240389777,0.5938661537174209,-3.8755783610206227
159,6.400057200999072,bno085,0.26171875,0.06640625,9.52734375,0.041015625,-0.01171875,-0.087890625,-0.00238037109375,-0.00811767578125,0.0689697265625,0.99755859375,2.1032537240389777,0.5938661537174209,-3.8755783610206227
160,6.440057126999818,bno085,0.109375,-0.0078125,9.5546875,0.0546875,0.05859375,-0.2890625,-0.00146484375,-0.00836181640625,0.067138671875,0.9976806640625,2.202158754955261,0.5672990855673985,-4.087971588141376
161,6.480058421999274,bno085,0.3359375,0.3359375,9.59765625,0.0546875,0.05859375,-0.2890625,0.00018310546875,-0.00701904296875,0.05914306640625,0.99822998046875,2.3828634541506353,0.746608055852339,-5.000821754822789
162,6.52005714400002,bno085,-0.2734375,-0.4296875,9.79296875,0.173828125,-0.029296875,-0.09375,0.00592041015625,-0.00689697265625,0.05377197265625,0.99853515625,3.027553540116582,0.7511226090032487,-5.622201215474829
163,6.560056735999751,bno085,0.3359375,0.60546875,9.17578125,0.505859375,-0.15234375,0.1875,0.01873779296875,-0.00982666015625,0.056396484375,0.9981689453125,4.480864442348839,0.3201147109527589,-5.35590470364222
164,6.600057364999884,bno085,0.22265625,0.22265625,9.48828125,-0.080078125,0.0703125,-0.076171875,0.01873779296875,-0.00982666015625,0.056396484375,0.9981689453125,4.480864442348839,0.3201147109527589,-5.35590470364222
165,6.64005719799934,bno085,0.14453125,0.375,9.52734375,-0.0625,0.080078125,0.04296875,0.0181884765625,-0.0093994140625,0.05267333984375,0.9984130859375,4.413544943731728,0.39776990854050376,-5.778570540716627
166,6.680057326999304,bno085,0.0703125,0.48828125,9.67578125,-0.0625,0.080078125,0.04296875,0.0179443359375,-0.009521484375,0.05322265625,0.99835205078125,4.385867558886634,0.38160176377671284,-5.716319763352553
167,6.720057196000198,bno085,0.18359375,0.375,9.5546875,0.099609375,-0.015625,0.205078125,0.021728515625,-0.0111083984375,0.05804443359375,0.99798583984375,4.817552239563686,0.1427679755782381,-5.180830100168688
168,6.760056806999273,bno085,0.30078125,0.44921875,9.40625,-0.021484375,0.0234375,0.060546875,0.02337646484375,-0.0118408203125,0.05987548828125,0.99786376953125,5.004259457783935,0.03469920126377894,-4.978972052235296
169,6.800056287998814,bno085,0.22265625,0.4140625,9.5234375,-0.017578125,0.0078125,0.00390625,0.02337646484375,-0.0118408203125,0.05987548828125,0.99786376953125,5.004259457783935,0.03469920126377894,-4.978972052235296
170,6.840056879998883,bno085,0.22265625,0.52734375,9.40625,-0.021484375,0.021484375,-0.078125,0.0234375,-0.0120849609375,0.05963134765625,0.99786376953125,5.009163900282873,0.0082437732606549,-5.008881112320983
171,6.880058564000137,bno085,0.14453125,0.48828125,9.52734375,-0.021484375,0.021484375,-0.078125,0.02410888671875,-0.01214599609375,0.0582275390625,0.9979248046875,5.083358932692628,0.007292470346460468,-5.171367880805932
172,6.9200575449995085,bno085,0.14453125,0.4140625,9.48828125,-0.109375,0.025390625,0.005859375,0.02203369140625,-0.01177978515625,0.0579833984375,0.99798583984375,4.847943443095058,0.06452932087795624,-5.193017657386195
173,6.960056914998859,bno085,0.26171875,0.375,9.59375,-0.005859375,0.009765625,-0.009765625,0.02105712890625,-0.0115966796875,0.057861328125,0.998046875,4.737303619842784,0.09265886557424265,-5.203806842361968
174,7.000057025999922,bno085,0.30078125,0.375,9.5546875,0.080078125,-0.013671875,-0.01171875,0.02105712890625,-0.0115966796875,0.057861328125,0.998046875,4.737303619842784,0.09265886557424265,-5.203806842361968
175,7.040057005999188,bno085,0.453125,0.56640625,9.59375,0.20703125,-0.154296875,0.1171875,0.02288818359375,-0.01190185546875,0.05780029296875,0.99798583984375,4.944636817965592,0.04632666473066191,-5.216308124358117
176,7.080057784000019,bno085,0.68359375,1.0625,9.75390625,0.20703125,-0.154296875,0.1171875,0.02972412109375,-0.013916015625,0.06048583984375,0.99761962890625,5.717192121554853,-0.24996608738878312,-4.937131934126717
177,7.12005920899901,bno085,-0.62109375,-0.046875,9.828125,1.048828125,-0.107421875,-0.02734375,0.05120849609375,-0.01531982421875,0.06280517578125,0.99658203125,8.169467051681709,-0.580243162189346,-4.732721666617406
178,7.160057152999798,bno085,0.72265625,1.5625,9.6328125,2.115234375,-0.291015625,0.685546875,0.09722900390625,-0.01373291015625,0.072998046875,0.99249267578125,13.467159359756852,-0.8830585540697015,-3.666882198093379
179,7.200057818999994,bno085,0.94921875,2.3671875,9.671875,3.94140625,-0.0234375,-0.28125,0.09722900390625,-0.01373291015625,0.072998046875,0.99249267578125,13.467159359756852,-0.8830585540697015,-3.666882198093379
180,7.240059632998964,bno085,-0.08203125,4.28125,7.796875,4.49609375,-0.14453125,0.423828125,0.185791015625,-0.00408935546875,0.0692138671875,0.98016357421875,23.77117995159041,-0.42087239807375,-4.116674897233266
181,7.280057095000302,bno085,-0.12109375,6.1953125,7.1796875,4.49609375,-0.14453125,0.423828125,0.2918701171875,0.00115966796875,0.08233642578125,0.952880859375,36.31970865196253,-1.173342960261582,-2.786493137300779
182,7.320058817000245,bno085,0.03125,8.0703125,5.8828125,3.033203125,1.46875,1.103515625,0.39544677734375,0.028564453125,0.11370849609375,0.91094970703125,49.24663794667398,-0.9024045797556236,1.4422970489748335
183,7.360059075999743,bno085,-0.7734375,7.38671875,-1.6640625,13.236328125,2.716796875,0.859375,0.4556884765625,0.05120849609375,0.09661865234375,0.8834228515625,57.14260966648637,1.438403484521225,0.8091508931262968
184,7.400060222998945,bno085,-0.6953125,10.90625,6.2265625,-9.609375,15.8046875,7.765625,0.4556884765625,0.05120849609375,0.09661865234375,0.8834228515625,57.14260966648637,1.438403484521225,0.8091508931262968
185,7.44005764800022,bno085,5.69921875,3.32421875,7.7578125,1.34375,-7.857421875,4.61328125,0.03594970703125,0.17413330078125,0.1451416015625,0.97332763671875,10.175518988890634,20.200727662590534,7.381124562300317
186,7.480057128999761,bno085,-3.453125,-4.64453125,13.16015625,1.34375,-7.857421875,4.61328125,0.15435791015625,0.019775390625,0.171142578125,0.972900390625,20.584767317647906,0.14472374668457566,8.027788812269723
187,7.520059276999746,bno085,2.328125,-0.5078125,10.1328125,2.779296875,1.400390625,-4.255859375,0.11627197265625,0.0587158203125,0.15106201171875,0.97991943359375,16.944551003606538,5.627415617818033,6.559056005603193
188,7.5600575909993495,bno085,-1.9609375,4.203125,9.7890625,-0.41796875,-0.376953125,0.94140625,0.12237548828125,0.0181884765625,0.1844482421875,0.97503662109375,16.925383108451697,0.3402512043388521,9.569289241399513
189,7.600057460998869,bno085,1.02734375,2.90234375,10.2109375,0.41796875,-1.19921875,1.1953125,0.12237548828125,0.0181884765625,0.1844482421875,0.97503662109375,16.925383108451697,0.3402512043388521,9.569289241399513
190,7.640056922999065,bno085,-0.3515625,1.5234375,7.953125,-0.4375,-0.658203125,1.07421875,0.14276123046875,0.0009765625,0.1944580078125,0.970458984375,18.870395792798604,-2.2179964883967136,10.317703053425538
191,7.680058349000319,bno085,0.68359375,2.40625,9.2890625,-0.4375,-0.658203125,1.07421875,0.13543701171875,-0.02288818359375,0.22265625,0.96514892578125,17.420810639681445,-5.281851315028646,13.154030246515699
192,7.72005684800024,bno085,1.2578125,2.40625,9.25,-0.306640625,-0.302734375,0.734375,0.13189697265625,-0.03302001953125,0.23529052734375,0.96234130859375,16.71069493264046,-6.566368975302919,14.477491196675912
193,7.760057587998745,bno085,0.64453125,1.75390625,8.83203125,-0.05078125,-0.1484375,-0.166015625,0.13128662109375,-0.0380859375,0.23583984375,0.962158203125,16.514900354956293,-7.120814948200516,14.465613254757926
194,7.800057272999766,bno085,1.296875,2.09765625,9.10546875,-0.19140625,-0.197265625,-0.177734375,0.13128662109375,-0.0380859375,0.23583984375,0.962158203125,16.514900354956293,-7.120814948200516,14.465613254757926
195,7.840056457998799,bno085,1.44921875,1.984375,9.25390625,-0.330078125,-0.0703125,0.544921875,0.128662109375,-0.0419921875,0.232666015625,0.96307373046875,16.142769844469413,-7.421625404889612,14.054332937728587
196,7.880058049999207,bno085,1.2578125,1.984375,8.640625,-0.330078125,-0.0703125,0.544921875,0.12091064453125,-0.04461669921875,0.2388916015625,0.96246337890625,15.157653459944699,-7.626692217032484,14.814242759423761
197,7.920057882000037,bno085,1.02734375,2.0234375,9.06640625,0.69921875,-0.19921875,-0.5,0.128173828125,-0.05047607421875,0.234619140625,0.9622802734375,15.870178628373543,-8.385923601682974,14.158738732121028
198,7.960057344998859,bno085,2.3671875,0.98828125,9.5234375,0.130859375,-0.033203125,-0.333984375,0.13409423828125,-0.04656982421875,0.2613525390625,0.95477294921875,16.428190334602014,-8.64068430928426,17.30494949096843
199,8.00005725200026,bno085,0.8359375,2.51953125,9.5234375,-0.322265625,0.611328125,-0.6953125,0.13409423828125,-0.04656982421875,0.2613525390625,0.95477294921875,16.428190334602014,-8.64068430928426,17.30494949096843
200,8.04005713999868,bno085,0.94921875,1.79296875,8.75,0.021484375,0.66796875,-0.5703125,0.1268310546875,-0.03692626953125,0.26220703125,0.9559326171875,15.864807450170776,-7.385238198126563,17.617563526261453
201,8.080057899000167,bno085,0.68359375,2.05859375,8.72265625,0.021484375,0.66796875,-0.5703125,0.129638671875,-0.0169677734375,0.257568359375,0.9573974609375,16.758966738253495,-5.186934022747316,17.37052177306046
202,8.1200570839992,bno085,0.30078125,2.40625,9.55859375,0.619140625,0.337890625,-0.74609375,0.13720703125,-0.00140380859375,0.24481201171875,0.9598388671875,18.082109461226473,-3.432847448282784,16.117404611649714
203,8.160058194000158,bno085,0.60546875,1.9453125,9.40625,-0.13671875,0.69921875,-0.8046875,0.13397216796875,0.01446533203125,0.23095703125,0.96356201171875,18.162192201521705,-1.30960766461927,14.832994866348937
204,8.200060507999297,bno085,0.453125,2.2890625,8.8671875,0.23046875,0.634765625,-0.767578125,0.13397216796875,0.01446533203125,0.23095703125,0.96356201171875,18.162192201521705,-1.30960766461927,14.832994866348937
205,8.2400573599989,bno085,-0.8515625,2.90234375,9.140625,0.544921875,0.001953125,-1.169921875,0.1343994140625,0.02789306640625,0.21514892578125,0.96685791015625,18.55136993311945,0.49348405588087796,13.283572923013233
206,8.28005696999935,bno085,-0.46484375,2.94140625,10.29296875,0.544921875,0.001953125,-1.169921875,0.1461181640625,0.0341796875,0.19122314453125,0.97003173828125,19.990219655433307,1.441282428149015,10.662683973810474
207,8.320059117999335,bno085,1.21875,1.67578125,7.30078125,-0.08203125,-0.263671875,-0.798828125,0.15032958984375,0.04150390625,0.17230224609375,0.97259521484375,20.57835429028995,2.5973840496477973,8.671277066113246
208,8.360057264999341,bno085,-0.8125,3.015625,9.671875,0.45703125,0.8515625,-0.923828125,0.1566162109375,0.0631103515625,0.1556396484375,0.9732666015625,21.68196229739502,5.255169968396718,7.32357589510911
209,8.400056802000108,bno085,-1.4609375,2.59765625,8.72265625,0.279296875,0.26953125,-0.951171875,0.1566162109375,0.0631103515625,0.1556396484375,0.9732666015625,21.68196229739502,5.255169968396718,7.32357589510911
210,8.440056912999353,bno085,-2.3046875,3.5546875,8.68359375,0.91015625,-0.12109375,-0.6640625,0.168701171875,0.07843017578125,0.13238525390625,0.97357177734375,23.22780444681277,7.3120896270531235,5.14509459464561
211,8.480056745000184,bno085,0.14453125,2.7890625,8.72265625,0.91015625,-0.12109375,-0.6640625,0.1929931640625,0.08917236328125,0.10723876953125,0.97125244140625,26.040620396264508,8.794432786999014,2.7658064777046674
212,8.520059133999894,bno085,-1.38671875,4.3984375,9.87109375,1.25,0.087890625,-1.03515625,0.2198486328125,0.09759521484375,0.07708740234375,0.96759033203125,29.04252570695985,10.265550243259096,-0.14219383921426432
213,8.560058114999265,bno085,-3.875,2.328125,10.25,1.51171875,0.193359375,1.017578125,0.240478515625,0.09771728515625,0.11151123046875,0.959228515625,31.821796370159763,8.860879993460387,3.8650970965952824
214,8.600058613999863,bno085,-0.62109375,3.5546875,4.8828125,0.66015625,1.248046875,-1.20703125,0.240478515625,0.09771728515625,0.11151123046875,0.959228515625,31.821796370159763,8.860879993460387,3.8650970965952824
215,8.640059594999911,bno085,-3.53125,4.359375,7.6796875,0.716796875,0.572265625,-1.7109375,0.22247314453125,0.184326171875,0.0711669921875,0.9547119140625,31.165376805299854,19.927482171367956,2.420909786876889
216,8.680058001998987,bno085,-4.3359375,4.3984375,8.98828125,0.716796875,0.572265625,-1.7109375,0.22406005859375,0.21160888671875,0.03411865234375,0.95074462890625,31.268168794689185,24.163297129869004,-0.7191038730357681
217,8.720059002000198,bno085,-3.953125,4.89453125,6.53515625,1.58984375,0.87109375,-1.697265625,0.25445556640625,0.242919921875,-0.0107421875,0.93603515625,34.801547034163974,28.928765533363745,-3.7870216124296734
218,8.760057259998575,bno085,-4.87109375,4.78125,6.83984375,2.4375,0.92578125,-1.498046875,0.31317138671875,0.27264404296875,-0.05517578125,0.90802001953125,42.25028452087186,33.58801600245565,-5.478455639911537
219,8.80005748199983,bno085,-5.4453125,6.84765625,6.03515625,2.94921875,0.771484375,0.8203125,0.31317138671875,0.27264404296875,-0.05517578125,0.90802001953125,42.25028452087186,33.58801600245565,-5.478455639911537
220,8.84005729599994,bno085,-5.5234375,9.375,5.99609375,6.236328125,0.11328125,8.240234375,0.38287353515625,0.27130126953125,-0.05047607421875,0.881591796875,52.07064819083707,32.60008793569526,-2.2765966687439754
221,8.880058703000032,bno085,-5.67578125,9.9453125,6.34375,6.236328125,0.11328125,8.240234375,0.53594970703125,0.19598388671875,0.0621337890625,0.81884765625,71.65010615906525,15.732847819679415,7.760755966145138
222,8.920061257998896,bno085,1.1796875,6.9609375,-0.97265625,3.369140625,-0.6015625,8.568359375,0.6427001953125,0.082763671875,0.19854736328125,0.7353515625,83.47612151832158,-6.880265765900653,11.569272992155758
223,8.960057368998605,bno085,1.87109375,5.39453125,0.90234375,5.990234375,-0.708984375,4.173828125,0.740966796875,0.0224609375,0.2611083984375,0.6182861328125,99.01160600586263,-20.181872402554493,9.62594168643071
224,9.000057238999943,bno085,2.0625,8.796875,1.2109375,1.435546875,-0.3359375,-0.025390625,0.740966796875,0.0224609375,0.2611083984375,0.6182861328125,99.01160600586263,-20.181872402554493,9.62594168643071
225,9.040056978999928,bno085,4.20703125,10.68359375,-0.70703125,1.044921875,-0.1015625,-1.16015625,0.75177001953125,0.02813720703125,0.26239013671875,0.60430908203125,101.05259309014978,-20.274880036305543,9.850463560761812
226,9.08005705299911,bno085,1.6796875,7.7265625,-0.28515625,1.044921875,-0.1015625,-1.16015625,0.7640380859375,0.05853271484375,0.2423095703125,0.5950927734375,103.40567068656003,-16.67317333971294,10.71290660987712
227,9.120058274000257,bno085,2.59765625,10.21875,-2.54296875,-0.224609375,-0.046875,-1.712890625,0.76153564453125,0.09307861328125,0.21307373046875,0.60498046875,103.26499877279039,-11.458549049393312,11.773343695936687
228,9.160059551999439,bno085,1.5234375,10.828125,-2.96484375,2.015625,-0.9609375,-2.134765625,0.77862548828125,0.1243896484375,0.17205810546875,0.59051513671875,106.96723026519616,-6.154927092752641,11.471242273440946
229,9.200056235999,bno085,0.26171875,8.95703125,-2.66015625,0.83203125,-0.19921875,-2.140625,0.77862548828125,0.1243896484375,0.17205810546875,0.59051513671875,106.96723026519616,-6.154927092752641,11.471242273440946
230,9.240056957998604,bno085,0.22265625,9.33984375,-3.50390625,-0.138671875,0.109375,-0.92578125,0.78509521484375,0.15948486328125,0.13916015625,0.58209228515625,109.25130541008707,-1.1300684153798037,12.51757757339434
231,9.280059142998653,bno085,-0.65625,9.83984375,-2.66015625,-0.138671875,0.109375,-0.92578125,0.7794189453125,0.1805419921875,0.12652587890625,0.58642578125,109.05292440660826,1.5276609617888095,13.735771844325459
232,9.320057623999674,bno085,-0.2734375,9.18359375,-2.890625,0.26171875,0.119140625,-0.10546875,0.781982421875,0.18609619140625,0.1253662109375,0.58154296875,109.78187086206859,1.8412528906031678,14.201263706337533
233,9.360058030999426,bno085,-0.4296875,9.1796875,-3.00390625,-0.025390625,-0.064453125,-0.111328125,0.78167724609375,0.187744140625,0.12347412109375,0.58184814453125,109.80079471236849,2.1299609213006776,14.240035587022303
234,9.400056918999326,bno085,-0.62109375,9.30078125,-2.8515625,0.109375,-0.046875,-0.076171875,0.78167724609375,0.187744140625,0.12347412109375,0.58184814453125,109.80079471236849,2.1299609213006776,14.240035587022303
235,9.44005704799929,bno085,-0.62109375,9.21875,-2.96484375,0.048828125,0.02734375,0.05859375,0.78204345703125,0.1888427734375,0.1209716796875,0.58148193359375,109.92245452293362,2.417624252899075,14.184991624400814
236,9.480057028999,bno085,-0.4296875,9.15234375,-2.96484375,0.048828125,0.02734375,0.05859375,0.78289794921875,0.188720703125,0.12164306640625,0.5802001953125,110.07746577981966,2.30808985663671,14.216526319540757
237,9.520057232999534,bno085,-0.3515625,9.15234375,-2.9296875,0.00390625,0.01953125,0.0625,0.783203125,0.187744140625,0.12298583984375,0.57989501953125,110.08671518327822,2.11168111431078,14.208547659606216
238,9.560057175998736,bno085,-0.46484375,9.18359375,-3.00390625,0.01953125,0.001953125,-0.0078125,0.78314208984375,0.18792724609375,0.12274169921875,0.5799560546875,110.08422991448265,2.147932014883041,14.21053086417716
239,9.600058119998721,bno085,-0.50390625,9.18359375,-2.96484375,-0.01953125,0.015625,0.01953125,0.78314208984375,0.18792724609375,0.12274169921875,0.5799560546875,110.08422991448265,2.147932014883041,14.21053086417716
240,9.640057767999679,bno085,-0.46484375,9.18359375,-2.96484375,-0.056640625,0.02734375,0.05859375,0.7825927734375,0.1878662109375,0.12322998046875,0.58062744140625,109.97793801405582,2.120933415421934,14.23628601904966
241,9.680058600999473,bno085,-0.390625,9.1484375,-2.890625,-0.056640625,0.02734375,0.05859375,0.7818603515625,0.18707275390625,0.12457275390625,0.58154296875,109.80481120949104,1.9772943723155703,14.245066063631354
242,9.720057970998823,bno085,-0.390625,9.18359375,-2.890625,-0.021484375,-0.029296875,-0.013671875,0.78118896484375,0.1868896484375,0.1241455078125,0.58258056640625,109.67116979727646,2.0375027082648005,14.199137581443967
243,9.760056711000288,bno085,-0.50390625,9.22265625,-2.890625,-0.046875,-0.078125,-0.0390625,0.78045654296875,0.18695068359375,0.12274169921875,0.5838623046875,109.53678890993132,2.2093266609570184,14.11383744353449
244,9.800057099999322,bno085,-0.50390625,9.18359375,-2.96484375,-0.01953125,0.02734375,0.044921875,0.78045654296875,0.18695068359375,0.12274169921875,0.5838623046875,109.53678890993132,2.2093266609570184,14.11383744353449
245,9.840056561999518,bno085,-0.4296875,9.1796875,-2.8515625,0.005859375,0.005859375,0.0234375,0.78009033203125,0.18646240234375,0.12347412109375,0.5843505859375,109.44589225197471,2.1266613678993886,14.113697675095125
246,9.880057357999249,bno085,-0.4296875,9.18359375,-2.890625,0.005859375,0.005859375,0.0234375,0.78009033203125,0.1859130859375,0.1240234375,0.5843505859375,109.42201040865413,2.0417337416514254,14.095014058939057
247,9.920056746999762,bno085,-0.46484375,9.1796875,-2.890625,0.001953125,-0.013671875,-0.0234375,0.780029296875,0.186279296875,0.12335205078125,0.58447265625,109.42718598132514,2.1302095435796597,14.087192257769312
248,9.960056597999937,bno085,-0.46484375,9.1796875,-2.890625,0.033203125,0.001953125,0.001953125,0.78125,0.1885986328125,0.12054443359375,0.58270263671875,109.7630289659761,2.4796794151628956,14.132569117790643
249,10.000057448998632,bno085,-0.46484375,9.1796875,-2.9296875,-0.005859375,-0.00390625,-0.01953125,0.78125,0.1885986328125,0.12054443359375,0.58270263671875,109.7630289659761,2.4796794151628956,14.132569117790643
250,10.040057430998786,bno085,-0.46484375,9.22265625,-2.890625,0.021484375,-0.001953125,-0.017578125,0.7816162109375,0.1898193359375,0.11895751953125,0.5821533203125,109.88937564622032,2.6857741538509377,14.150132247668337
251,10.08005633799985,bno085,-0.46484375,9.1796875,-2.890625,0.021484375,-0.001953125,-0.017578125,0.78192138671875,0.1904296875,0.11822509765625,0.5816650390625,109.97657278078195,2.7769698189251564,14.162770765534994
252,10.120057318999898,bno085,-0.46484375,9.1796875,-2.9296875,0.0234375,0.0,-0.0078125,0.78228759765625,0.19097900390625,0.11761474609375,0.5811767578125,110.07004207912962,2.851762868205804,14.178705559983076
253,10.160057058999882,bno085,-0.50390625,9.1796875,-2.9296875,0.0390625,0.009765625,-0.001953125,0.7828369140625,0.19140625,0.1171875,0.580322265625,110.19534424099334,2.892026443200659,14.19321462933124
254,10.2000597440001,bno085,-0.46484375,9.1796875,-2.9296875,0.046875,0.005859375,0.013671875,0.7828369140625,0.19140625,0.1171875,0.580322265625,110.19534424099334,2.892026443200659,14.19321462933124
255,10.240057779999916,bno085,-0.46484375,9.18359375,-2.96484375,0.02734375,-0.01953125,0.0,0.78363037109375,0.19171142578125,0.116943359375,0.5792236328125,110.35844899212832,2.89859195139827,14.209027108373938
256,10.280058872000154,bno085,-0.4296875,9.15234375,-2.96484375,0.02734375,-0.01953125,0.0,0.78411865234375,0.19195556640625,0.11651611328125,0.5784912109375,110.46439556936703,2.9311070613934516,14.205355038072465
257,10.320056741998997,bno085,-0.46484375,9.1796875,-2.9296875,-0.005859375,-0.0078125,-0.02734375,0.7841796875,0.19232177734375,0.1160888671875,0.57843017578125,110.49224463200586,2.9910180743402632,14.214975185861721
258,10.360057427000356,bno085,-0.50390625,9.18359375,-3.00390625,0.013671875,-0.015625,-0.00390625,0.78448486328125,0.19256591796875,0.1151123046875,0.578125,110.56232498389345,3.0862649940383515,14.176849529510969
259,10.400058111999897,bno085,-0.50390625,9.18359375,-3.00390625,-0.029296875,-0.001953125,0.001953125,0.78448486328125,0.19256591796875,0.1151123046875,0.578125,110.56232498389345,3.0862649940383515,14.176849529510969
260,10.440058555999713,bno085,-0.46484375,9.18359375,-2.96484375,-0.029296875,0.00390625,-0.0078125,0.78436279296875,0.192626953125,0.114990234375,0.57830810546875,110.54200930528205,3.1070012931597875,14.175033389227863
261,10.48005762899993,bno085,-0.46484375,9.15234375,-2.9296875,-0.029296875,0.00390625,-0.0078125,0.78399658203125,0.19287109375,0.1148681640625,0.57879638671875,110.48366879443854,3.1488287653714,14.191389904910025
262,10.520057517998794,bno085,-0.54296875,9.22265625,-2.9296875,-0.005859375,-0.013671875,-0.056640625,0.78375244140625,0.19366455078125,0.1138916015625,0.5789794921875,110.47922893524863,3.2964174356972413,14.20588934825931
263,10.560057388000132,bno085,-0.54296875,9.18359375,-3.00390625,0.044921875,-0.01171875,-0.03515625,0.78424072265625,0.19439697265625,0.113037109375,0.57830810546875,110.60578039368417,3.3994083277073477,14.225625804542899
264,10.60005775799982,bno085,-0.54296875,9.18359375,-3.00390625,-0.009765625,0.009765625,0.00390625,0.78424072265625,0.19439697265625,0.113037109375,0.57830810546875,110.60578039368417,3.3994083277073477,14.225625804542899
265,10.640065071998833,bno085,-0.50390625,9.1484375,-2.96484375,-0.033203125,-0.01171875,-0.037109375,0.78399658203125,0.19488525390625,0.11273193359375,0.57843017578125,110.58699634840904,3.464445795532441,14.252704755361004
266,10.680057423998733,bno085,-0.54296875,9.18359375,-3.00390625,-0.033203125,-0.01171875,-0.037109375,0.783447265625,0.19537353515625,0.11212158203125,0.57916259765625,110.50736568681906,3.5747777460238668,14.261246042064155
267,10.720057442000325,bno085,-0.50390625,9.1484375,-2.8515625,-0.068359375,-0.005859375,-0.015625,0.78253173828125,0.19549560546875,0.1119384765625,0.58038330078125,110.34193511824188,3.6387213366111326,14.259245422389274
268,10.760056293000162,bno085,-0.54296875,9.1796875,-2.890625,0.015625,-0.052734375,0.0546875,0.78289794921875,0.1947021484375,0.11138916015625,0.580322265625,110.37047603023977,3.6342847378600225,14.146830051789834
269,10.800058274999174,bno085,-0.54296875,9.1796875,-2.9296875,0.064453125,0.001953125,0.080078125,0.78289794921875,0.1947021484375,0.11138916015625,0.580322265625,110.37047603023977,3.6342847378600225,14.146830051789834
270,10.840056866998566,bno085,-0.46484375,9.11328125,-2.9296875,0.029296875,-0.001953125,0.013671875,0.78399658203125,0.1934814453125,0.11212158203125,0.57904052734375,110.51817855248787,3.4482613197022247,14.074442054518205
271,10.880057476999355,bno085,-0.46484375,9.18359375,-2.96484375,0.029296875,-0.001953125,0.013671875,0.78466796875,0.19305419921875,0.1124267578125,0.57830810546875,110.6208385436046,3.367957432915147,14.054239373147004
272,10.920056884999212,bno085,-0.46484375,9.1484375,-2.96484375,0.005859375,0.01171875,0.029296875,0.78497314453125,0.19281005859375,0.11279296875,0.577880859375,110.6667902031969,3.305464625485851,14.053799067253404
273,10.960056402998816,bno085,-0.4296875,9.15234375,-2.96484375,0.0,-0.001953125,-0.001953125,0.78509521484375,0.19281005859375,0.112548828125,0.57769775390625,110.69183188629569,3.3229517010792327,14.037588554045643
274,11.000056586999563,bno085,-0.46484375,9.1484375,-2.96484375,-0.015625,0.0,-0.001953125,0.784912109375,0.19287109375,0.1123046875,0.5780029296875,110.65967023448536,3.358457164158216,14.028011622567552
275,11.040058049999061,bno085,-0.46484375,9.1484375,-2.96484375,-0.009765625,-0.0078125,-0.01953125,0.784912109375,0.19287109375,0.1123046875,0.5780029296875,110.65967023448536,3.358457164158216,14.028011622567552
276,11.08005782699911,bno085,-0.46484375,9.18359375,-2.96484375,-0.009765625,-0.0078125,-0.01953125,0.784912109375,0.19317626953125,0.11187744140625,0.57806396484375,110.67268586500026,3.4179864816123002,14.031968797915239
277,11.120057141999496,bno085,-0.50390625,9.1484375,-2.96484375,0.013671875,-0.01171875,-0.013671875,0.78497314453125,0.19342041015625,0.1114501953125,0.57794189453125,110.69763497843017,3.46959311836335,14.028504369613389
278,11.160059492998698,bno085,-0.50390625,9.15234375,-2.9296875,0.005859375,0.005859375,-0.005859375,0.78509521484375,0.193603515625,0.111328125,0.5777587890625,110.72914910030097,3.48648346372246,14.039425212414972
279,11.200058881999212,bno085,-0.46484375,9.109375,-3.00390625,0.005859375,0.001953125,-0.005859375,0.78509521484375,0.193603515625,0.111328125,0.5777587890625,110.72914910030097,3.48648346372246,14.039425212414972
280,11.240059103998647,bno085,-0.46484375,9.1484375,-2.96484375,0.009765625,0.0,-0.00390625,0.78521728515625,0.19378662109375,0.11126708984375,0.5775146484375,110.76200376155492,3.496602850274075,14.053643089398124
281,11.280058676999033,bno085,-0.46484375,9.1484375,-2.96484375,0.009765625,0.0,-0.00390625,0.78533935546875,0.19390869140625,0.11114501953125,0.5772705078125,110.79285067610569,3.5088457238728403,14.05749820357106
282,11.32005760299944,bno085,-0.50390625,9.1484375,-3.00390625,0.0,-0.001953125,-0.00390625,0.78546142578125,0.1939697265625,0.1109619140625,0.5771484375,110.81824102890536,3.5252231293339014,14.052522962134212
283,11.360057731999404,bno085,-0.50390625,9.1484375,-2.96484375,0.0078125,-0.005859375,-0.015625,0.7855224609375,0.1942138671875,0.11065673828125,0.57708740234375,110.84077694873498,3.5662956537892923,14.05803695100613
284,11.400059212999622,bno085,-0.46484375,9.1484375,-2.96484375,0.001953125,0.0,0.0,0.7855224609375,0.1942138671875,0.110595703125,0.57708740234375,110.84117036572468,3.5720620182467027,14.053993773162043
285,11.440057138999691,bno085,-0.50390625,9.1484375,-2.96484375,0.013671875,-0.0078125,-0.01171875,0.7855224609375,0.1942138671875,0.110595703125,0.57708740234375,110.84117036572468,3.5720620182467027,14.053993773162043
286,11.480058656999972,bno085,-0.50390625,9.1484375,-2.96484375,0.013671875,-0.0078125,-0.01171875,0.78558349609375,0.19427490234375,0.1102294921875,0.57696533203125,110.85858199500413,3.607021547302515,14.035736782054988
287,11.520059508999111,bno085,-0.50390625,9.1484375,-3.00390625,0.009765625,0.0,-0.001953125,0.78570556640625,0.1943359375,0.11016845703125,0.5767822265625,110.88493386318643,3.610870214946555,14.038120855150291
288,11.560057527000026,bno085,-0.50390625,9.1484375,-3.00390625,0.017578125,-0.001953125,-0.005859375,0.785888671875,0.19451904296875,0.1099853515625,0.5765380859375,110.92783570000036,3.6312280357153814,14.04553190125899
289,11.600056989000223,bno085,-0.50390625,9.1484375,-3.00390625,0.005859375,0.0,-0.01171875,0.785888671875,0.19451904296875,0.1099853515625,0.5765380859375,110.92783570000036,3.6312280357153814,14.04553190125899
290,11.640056969999932,bno085,-0.54296875,9.1484375,-3.00390625,0.0234375,-0.00390625,0.0,0.7860107421875,0.19476318359375,0.1097412109375,0.576416015625,110.96093460406097,3.6642417900101494,14.055595281454673
291,11.680059321999579,bno085,-0.50390625,9.1484375,-3.00390625,0.0234375,-0.00390625,0.0,0.7862548828125,0.19482421875,0.109619140625,0.57611083984375,111.00952401375517,3.6692984023189554,14.054841352546067
292,11.720057544000156,bno085,-0.54296875,9.109375,-3.04296875,0.005859375,0.005859375,0.0,0.786376953125,0.19500732421875,0.10955810546875,0.5758056640625,111.04425683829322,3.6783829113669357,14.068427323585981
293,11.76005706199976,bno085,-0.50390625,9.109375,-3.00390625,-0.0078125,0.00390625,0.00390625,0.78631591796875,0.19500732421875,0.109619140625,0.57586669921875,111.03294625596862,3.6748890649411083,14.072021896962827
294,11.800056764999681,bno085,-0.54296875,9.1484375,-3.04296875,0.01171875,-0.0078125,-0.013671875,0.78643798828125,0.19525146484375,0.1092529296875,0.57574462890625,111.06689108902185,3.719432419784069,14.074091646765769
295,11.84005702399918,bno085,-0.54296875,9.1484375,-3.04296875,-0.001953125,0.001953125,0.015625,0.78643798828125,0.19525146484375,0.1092529296875,0.57574462890625,111.06689108902185,3.719432419784069,14.074091646765769
296,11.880056986999989,bno085,-0.50390625,9.109375,-3.00390625,-0.001953125,0.001953125,0.015625,0.786376953125,0.195068359375,0.1094970703125,0.5758056640625,111.04708578269154,3.687772388402804,14.070739459646367
297,11.920056967999699,bno085,-0.54296875,9.109375,-3.00390625,-0.021484375,-0.001953125,-0.009765625,0.7860107421875,0.1951904296875,0.10955810546875,0.5762939453125,110.98261242768345,3.70490388607676,14.086349402572074
298,11.960056985999472,bno085,-0.50390625,9.1484375,-3.00390625,0.0,0.0,-0.00390625,0.785888671875,0.1953125,0.10943603515625,0.576416015625,110.96646820069937,3.728247459819712,14.090091951301002
299,12.000056875000155,bno085,-0.54296875,9.1484375,-3.00390625,-0.0078125,-0.005859375,-0.00390625,0.785888671875,0.1953125,0.10943603515625,0.576416015625,110.96646820069937,3.728247459819712,14.090091951301002
300,12.040056855999865,bno085,-0.54296875,9.1484375,-3.00390625,0.005859375,-0.005859375,-0.0078125,0.78594970703125,0.19537353515625,0.10919189453125,0.57635498046875,110.9814078757796,3.752671130992981,14.080745826911274
301,12.080057003999173,bno085,-0.54296875,9.109375,-3.04296875,0.009765625,-0.01171875,0.001953125,0.7861328125,0.1953125,0.10894775390625,0.576171875,111.01329408091549,3.765303021844165,14.059608389751785
302,12.120055503999538,bno085,-0.58203125,9.1484375,-3.00390625,0.009765625,-0.01171875,0.001953125,0.7864990234375,0.19525146484375,0.1085205078125,0.5758056640625,111.07912713060341,3.78843529837356,14.027739524784598
303,12.160058854999079,bno085,-0.50390625,9.109375,-3.00390625,0.015625,0.00390625,0.01171875,0.78662109375,0.1951904296875,0.108642578125,0.5755615234375,111.10121761019242,3.7667403172609935,14.028825065411414
304,12.200056780999148,bno085,-0.54296875,9.109375,-3.04296875,-0.01171875,-0.00390625,0.001953125,0.78662109375,0.1951904296875,0.108642578125,0.5755615234375,111.10121761019242,3.7667403172609935,14.028825065411414
305,12.240057742999852,bno085,-0.54296875,9.109375,-3.00390625,0.001953125,0.0,-0.01171875,0.7864990234375,0.1951904296875,0.10858154296875,0.5758056640625,111.07629237617853,3.779047184465964,14.025419670309363
306,12.280057298999964,bno085,-0.54296875,9.1484375,-3.04296875,0.001953125,-0.01171875,-0.0078125,0.78643798828125,0.19537353515625,0.10845947265625,0.5758056640625,111.07523623942603,3.80272918879572,14.035209613888702
307,12.32005724299961,bno085,-0.54296875,9.109375,-3.00390625,0.001953125,-0.01171875,-0.0078125,0.78643798828125,0.19537353515625,0.108154296875,0.57586669921875,111.07549943508528,3.8325961349940916,14.015847718722158
308,12.360061019999193,bno085,-0.58203125,9.1484375,-3.04296875,0.0078125,-0.009765625,-0.00390625,0.78656005859375,0.1954345703125,0.10791015625,0.57574462890625,111.1013722020195,3.854758204378538,14.007005324444297
309,12.40005718700013,bno085,-0.54296875,9.1484375,-3.00390625,-0.01171875,0.01171875,0.021484375,0.786376953125,0.1953125,0.10833740234375,0.575927734375,111.06094549219762,3.8139336695816346,14.021125293449986
310,12.440056722998634,bno085,-0.50390625,9.109375,-3.00390625,0.0078125,-0.017578125,-0.021484375,0.786376953125,0.1953125,0.10833740234375,0.575927734375,111.06094549219762,3.8139336695816346,14.021125293449986
311,12.480056518999845,bno085,-0.54296875,9.1484375,-3.04296875,-0.009765625,0.005859375,0.015625,0.786376953125,0.19549560546875,0.10784912109375,0.57598876953125,111.06972770766187,3.8719623311389633,14.008729969320465
312,12.520056999999724,bno085,-0.54296875,9.109375,-3.00390625,-0.009765625,0.005859375,0.015625,0.78631591796875,0.19537353515625,0.1080322265625,0.57611083984375,111.0509865542247,3.8506690520319955,14.008405508239738
313,12.560056852000343,bno085,-0.54296875,9.109375,-3.00390625,0.009765625,-0.005859375,-0.0078125,0.78643798828125,0.1954345703125,0.10791015625,0.57586669921875,111.07954744668183,3.8593156075861823,14.006108086003772
314,12.600057573999948,bno085,-0.54296875,9.1484375,-3.04296875,-0.00390625,0.0,0.015625,0.786376953125,0.19525146484375,0.1080322265625,0.57598876953125,111.05877200213821,3.840186029394244,13.995418369548503
315,12.640056813999763,bno085,-0.54296875,9.109375,-3.04296875,-0.041015625,0.013671875,-0.01171875,0.786376953125,0.19525146484375,0.1080322265625,0.57598876953125,111.05877200213821,3.840186029394244,13.995418369548503
316,12.680059628999516,bno085,-0.54296875,9.109375,-3.00390625,-0.01953125,0.0,-0.009765625,0.78619384765625,0.19537353515625,0.108154296875,0.57623291015625,111.02836540503922,3.8436751142406465,14.015558177818516
317,12.720059276998654,bno085,-0.54296875,9.1484375,-3.00390625,-0.01953125,0.0,-0.009765625,0.7860107421875,0.195556640625,0.1080322265625,0.576416015625,111.00376364252207,3.872904493183705,14.025195625529657
318,12.760057498999231,bno085,-0.54296875,9.1484375,-3.00390625,-0.021484375,0.001953125,0.001953125,0.78582763671875,0.195556640625,0.108154296875,0.57666015625,110.96850467700588,3.8691773961423035,14.032651072660654
319,12.800059257999237,bno085,-0.54296875,9.1484375,-2.96484375,-0.005859375,-0.009765625,-0.015625,0.78570556640625,0.19573974609375,0.1077880859375,0.5767822265625,110.95643279352697,3.9192273143436465,14.026621337095301
320,12.840059145999476,bno085,-0.58203125,9.1484375,-3.00390625,-0.005859375,0.005859375,0.009765625,0.78570556640625,0.19573974609375,0.1077880859375,0.5767822265625,110.95643279352697,3.9192273143436465,14.026621337095301
321,12.880059498000264,bno085,-0.54296875,9.1484375,-2.96484375,-0.001953125,-0.001953125,0.001953125,0.78564453125,0.1956787109375,0.10791015625,0.576904296875,110.94054641744363,3.907323012748144,14.028627997761417
322,12.920058682999297,bno085,-0.54296875,9.1484375,-2.96484375,-0.001953125,-0.001953125,0.001953125,0.78558349609375,0.1956787109375,0.1080322265625,0.57696533203125,110.92884362803616,3.89805876777393,14.036233906535077
323,12.960058663999007,bno085,-0.54296875,9.1484375,-3.00390625,-0.00390625,0.001953125,-0.00390625,0.78546142578125,0.19580078125,0.1080322265625,0.57708740234375,110.91193321720988,3.9098571371905044,14.048018052450084
324,13.000059089999922,bno085,-0.54296875,9.1484375,-3.00390625,-0.017578125,0.005859375,0.009765625,0.78515625,0.19573974609375,0.1082763671875,0.57745361328125,110.85166535550535,3.8955453155830395,14.056305658599058
325,13.040057459998934,bno085,-0.54296875,9.1484375,-2.96484375,-0.029296875,0.01171875,0.005859375,0.78515625,0.19573974609375,0.1082763671875,0.57745361328125,110.85166535550535,3.8955453155830395,14.056305658599058
326,13.080057459999807,bno085,-0.54296875,9.1484375,-2.96484375,0.00390625,0.001953125,-0.0078125,0.78485107421875,0.19573974609375,0.1087646484375,0.57781982421875,110.79228415629734,3.8617944234400965,14.087108178481508
327,13.120057403999454,bno085,-0.54296875,9.1484375,-2.96484375,0.00390625,0.001953125,-0.0078125,0.7847900390625,0.1959228515625,0.108642578125,0.57781982421875,110.79125220315359,3.8855043866625887,14.096849891873816
328,13.16005877399948,bno085,-0.54296875,9.1484375,-2.96484375,0.0,0.001953125,-0.009765625,0.7847900390625,0.19610595703125,0.1083984375,0.57781982421875,110.80019925574074,3.9194449237416933,14.09972119233779
329,13.20005632900029,bno085,-0.54296875,9.15234375,-2.9296875,0.009765625,0.0,-0.00390625,0.78497314453125,0.1962890625,0.10821533203125,0.57757568359375,110.84316140837409,3.9397745689978834,14.107241554450088
330,13.240055217998815,bno085,-0.58203125,9.1484375,-2.96484375,0.009765625,-0.013671875,-0.01953125,0.78497314453125,0.1962890625,0.10821533203125,0.57757568359375,110.84316140837409,3.9397745689978834,14.107241554450088
331,13.280056495999816,bno085,-0.58203125,9.1484375,-3.00390625,0.015625,0.00390625,-0.0078125,0.78509521484375,0.19647216796875,0.107666015625,0.57745361328125,110.87592578819849,3.9979854335729956,14.090897761643014
332,13.320056216998637,bno085,-0.54296875,9.1484375,-2.96484375,0.015625,0.00390625,-0.0078125,0.7852783203125,0.1966552734375,0.10736083984375,0.5771484375,110.92146629011239,4.028879894576654,14.089680867345193
333,13.360056031999193,bno085,-0.58203125,9.1484375,-3.00390625,0.0078125,0.005859375,-0.009765625,0.7855224609375,0.1968994140625,0.10711669921875,0.5767822265625,110.97999918051345,4.055322130772816,14.099336382381082
334,13.400056123999093,bno085,-0.54296875,9.109375,-3.00390625,0.0390625,0.005859375,-0.0234375,0.78607177734375,0.1973876953125,0.10675048828125,0.57598876953125,111.10727244901848,4.094320036585538,14.127272741586356
335,13.440055420000135,bno085,-0.58203125,9.109375,-3.04296875,0.013671875,-0.01953125,-0.03515625,0.78607177734375,0.1973876953125,0.10675048828125,0.57598876953125,111.10727244901848,4.094320036585538,14.127272741586356
336,13.48005612399902,bno085,-0.62109375,9.1484375,-3.04296875,0.025390625,-0.00390625,-0.015625,0.7862548828125,0.19775390625,0.10595703125,0.57574462890625,111.16190258837663,4.183211467045593,14.113951446687526
337,13.52005510500021,bno085,-0.62109375,9.109375,-3.04296875,0.025390625,-0.00390625,-0.015625,0.78643798828125,0.1981201171875,0.1053466796875,0.57550048828125,111.21537021630114,4.254760923539927,14.112767091814172
338,13.560056567999709,bno085,-0.62109375,9.109375,-3.08203125,0.009765625,0.001953125,-0.00390625,0.78662109375,0.19830322265625,0.10516357421875,0.5751953125,111.2603153088949,4.274075322779308,14.119843148878566
339,13.600057196999842,bno085,-0.58203125,9.109375,-3.04296875,-0.005859375,0.0078125,0.015625,0.7864990234375,0.1981201171875,0.10546875,0.5753173828125,111.22897958609619,4.238968656042795,14.119790716978889
340,13.640056381998875,bno085,-0.58203125,9.109375,-3.04296875,0.005859375,-0.009765625,-0.017578125,0.7864990234375,0.1981201171875,0.10546875,0.5753173828125,111.22897958609619,4.238968656042795,14.119790716978889
341,13.680055900000298,bno085,-0.62109375,9.1484375,-3.04296875,0.037109375,0.009765625,0.009765625,0.78662109375,0.1982421875,0.105224609375,0.57525634765625,111.25565448464158,4.265662307449323,14.11820807860582
342,13.720057751999775,bno085,-0.62109375,9.109375,-3.04296875,0.037109375,0.009765625,0.009765625,0.78704833984375,0.1983642578125,0.10528564453125,0.57452392578125,111.34545757538294,4.2461489488429915,14.1346686186772
343,13.760056215000077,bno085,-0.62109375,9.109375,-3.08203125,0.041015625,0.009765625,0.0078125,0.7877197265625,0.19842529296875,0.1053466796875,0.5736083984375,111.47478611025667,4.214785569921855,14.147421780219284
344,13.800055269999575,bno085,-0.58203125,9.109375,-3.12109375,0.044921875,0.021484375,0.01953125,0.7884521484375,0.19842529296875,0.10577392578125,0.57257080078125,111.61195468157025,4.141771093926531,14.177453270401054
345,13.840056436998566,bno085,-0.58203125,9.07421875,-3.12109375,0.03515625,0.01171875,0.021484375,0.7884521484375,0.19842529296875,0.10577392578125,0.57257080078125,111.61195468157025,4.141771093926531,14.177453270401054
346,13.880057510999904,bno085,-0.54296875,9.07421875,-3.12109375,0.029296875,0.001953125,0.0078125,0.78912353515625,0.1983642578125,0.10601806640625,0.57159423828125,111.73713358467695,4.084811828645744,14.188602219484439
347,13.920055287999276,bno085,-0.54296875,9.0703125,-3.15625,0.029296875,0.001953125,0.0078125,0.78955078125,0.19842529296875,0.1058349609375,0.57098388671875,111.82293975593579,4.086727843464487,14.184196119481296
348,13.960057583999514,bno085,-0.58203125,9.0703125,-3.15625,0.009765625,0.00390625,-0.001953125,0.78973388671875,0.198486328125,0.10565185546875,0.57073974609375,111.86135621318094,4.099813309411193,14.179364495876545
349,14.000057084000218,bno085,-0.54296875,9.0703125,-3.15625,0.00390625,-0.0078125,-0.017578125,0.789794921875,0.19873046875,0.10528564453125,0.57061767578125,111.8865743962243,4.145598711705094,14.18082939533373
350,14.040057694999632,bno085,-0.62109375,9.11328125,-3.15625,0.0078125,-0.001953125,0.00390625,0.789794921875,0.19873046875,0.10528564453125,0.57061767578125,111.8865743962243,4.145598711705094,14.18082939533373
351,14.080056786999194,bno085,-0.54296875,9.0703125,-3.15625,0.0078125,-0.009765625,-0.01953125,0.7899169921875,0.19879150390625,0.10516357421875,0.5704345703125,111.91363572169014,4.155184186113156,14.179519115921158
352,14.120057639000152,bno085,-0.58203125,9.0703125,-3.15625,0.0078125,-0.009765625,-0.01953125,0.7900390625,0.198974609375,0.1048583984375,0.5703125,111.94510305806237,4.190277802470769,14.179826871803254
353,14.160059341998931,bno085,-0.58203125,9.0703125,-3.15625,0.00390625,0.00390625,0.021484375,0.79022216796875,0.19873046875,0.10504150390625,0.57012939453125,111.96679223697342,4.151726313813527,14.167628803804945
354,14.200059841999973,bno085,-0.58203125,9.0703125,-3.15625,-0.005859375,0.0,0.00390625,0.79022216796875,0.19866943359375,0.105224609375,0.570068359375,111.96486916594134,4.129772567951352,14.172407180310255
355,14.240072156999304,bno085,-0.58203125,9.0703125,-3.15625,0.001953125,0.01171875,0.01171875,0.79022216796875,0.19866943359375,0.105224609375,0.570068359375,111.96486916594134,4.129772567951352,14.172407180310255
356,14.280076748998908,bno085,-0.58203125,9.07421875,-3.1953125,0.017578125,0.0078125,0.009765625,0.79034423828125,0.19854736328125,0.1055908203125,0.56988525390625,111.98109672673823,4.082235709963287,14.183663907394413
357,14.320058322999103,bno085,-0.58203125,9.11328125,-3.15625,0.017578125,0.0078125,0.009765625,0.79052734375,0.19854736328125,0.1058349609375,0.569580078125,112.0159150578575,4.05013352717477,14.199505556345017
358,14.360056674999214,bno085,-0.54296875,9.0703125,-3.15625,0.041015625,0.025390625,0.0234375,0.79107666015625,0.198486328125,0.10650634765625,0.56878662109375,112.11470382335385,3.9580038566617572,14.238084700421044
359,14.400055860000066,bno085,-0.50390625,9.07421875,-3.1953125,0.021484375,0.009765625,0.015625,0.79144287109375,0.19830322265625,0.10687255859375,0.5682373046875,112.17609232668279,3.8956851368298397,14.243311849775239
360,14.440057136998803,bno085,-0.50390625,9.07421875,-3.1953125,0.02734375,0.017578125,0.009765625,0.79144287109375,0.19830322265625,0.10687255859375,0.5682373046875,112.17609232668279,3.8956851368298397,14.243311849775239
361,14.480056358999718,bno085,-0.54296875,9.07421875,-3.1953125,-0.01171875,-0.005859375,0.0,0.79168701171875,0.19830322265625,0.1070556640625,0.56787109375,112.22237407261765,3.867039056823832,14.255598720131422
362,14.520058877998963,bno085,-0.54296875,9.07421875,-3.1953125,-0.01171875,-0.005859375,0.0,0.79156494140625,0.19818115234375,0.1070556640625,0.56805419921875,112.19368764789823,3.865548752427887,14.242615751725179
363,14.56005732199992,bno085,-0.54296875,9.07421875,-3.1953125,0.0078125,-0.01171875,-0.009765625,0.79156494140625,0.1981201171875,0.1068115234375,0.568115234375,112.19112516310503,3.8862420813468814,14.221117296247145
364,14.600057024999842,bno085,-0.54296875,9.07421875,-3.1953125,0.0,-0.00390625,-0.00390625,0.79168701171875,0.19805908203125,0.1065673828125,0.5679931640625,112.21236204456937,3.9013384546281795,14.19982704584933
365,14.640059432998896,bno085,-0.54296875,9.07421875,-3.1953125,-0.001953125,-0.0078125,-0.0078125,0.79168701171875,0.19805908203125,0.1065673828125,0.5679931640625,112.21236204456937,3.9013384546281795,14.19982704584933
366,14.680057820998627,bno085,-0.54296875,9.07421875,-3.1953125,-0.00390625,-0.005859375,0.001953125,0.79168701171875,0.1981201171875,0.1063232421875,0.56805419921875,112.21468641452225,3.929130393358564,14.191121014751673
367,14.720057524998992,bno085,-0.54296875,9.07421875,-3.1953125,-0.00390625,-0.005859375,0.001953125,0.79168701171875,0.19805908203125,0.106201171875,0.56805419921875,112.21311526837742,3.937208282503402,14.17681245117065
368,14.760056765999252,bno085,-0.54296875,9.07421875,-3.1953125,-0.00390625,-0.005859375,0.009765625,0.791748046875,0.1978759765625,0.1063232421875,0.56805419921875,112.21401746271567,3.91363255108764,14.16676464898981
369,14.800057116999596,bno085,-0.54296875,9.07421875,-3.1953125,-0.005859375,-0.005859375,-0.005859375,0.79168701171875,0.1978759765625,0.1063232421875,0.56817626953125,112.20118418105943,3.9169230475997403,14.167028682170088
370,14.840057690998947,bno085,-0.54296875,9.07421875,-3.1953125,0.013671875,-0.013671875,0.015625,0.79168701171875,0.1978759765625,0.1063232421875,0.56817626953125,112.20118418105943,3.9169230475997403,14.167028682170088
371,14.88005719099965,bno085,-0.54296875,9.07421875,-3.1953125,0.013671875,-0.001953125,0.021484375,0.79180908203125,0.19757080078125,0.10626220703125,0.56805419921875,112.21135917194911,3.9003977585177454,14.132063919544605
372,14.920059875999868,bno085,-0.50390625,9.07421875,-3.1953125,0.013671875,-0.001953125,0.021484375,0.79205322265625,0.19720458984375,0.1064453125,0.56781005859375,112.23933396073477,3.852489819322769,14.107485376322717
373,14.960056653999345,bno085,-0.54296875,9.03125,-3.1953125,-0.00390625,0.009765625,-0.0078125,0.79193115234375,0.19732666015625,0.1065673828125,0.56793212890625,112.22138542314468,3.852547649360892,14.12724252370038
374,15.00005700499969,bno085,-0.54296875,9.07421875,-3.1953125,-0.029296875,0.0078125,-0.0234375,0.79144287109375,0.19775390625,0.10650634765625,0.5684814453125,112.1492689331796,3.902571569263063,14.164981962234362
375,15.040057209000224,bno085,-0.50390625,9.03515625,-3.15625,-0.0390625,-0.033203125,-0.05859375,0.79144287109375,0.19775390625,0.10650634765625,0.5684814453125,112.1492689331796,3.902571569263063,14.164981962234362
376,15.080059097999765,bno085,-0.54296875,9.0703125,-3.15625,0.0,-0.03125,-0.060546875,0.79071044921875,0.1982421875,0.1053466796875,0.569580078125,112.03443416123551,4.0748684351210995,14.139483848493434
377,15.120057356998586,bno085,-0.62109375,9.109375,-3.12109375,0.0,-0.03125,-0.060546875,0.79046630859375,0.19879150390625,0.103759765625,0.57000732421875,112.01850492804888,4.26999226296659,14.094239553417314
378,15.16005991199927,bno085,-0.62109375,9.0703125,-3.15625,0.001953125,-0.001953125,0.00390625,0.7906494140625,0.19873046875,0.103515625,0.56982421875,112.050648982153,4.282788461151428,14.073510189042414
379,15.200059152999529,bno085,-0.62109375,9.0703125,-3.15625,0.02734375,0.001953125,0.01171875,0.79095458984375,0.1986083984375,0.10357666015625,0.56939697265625,112.10378447539868,4.256461783313764,14.065721247006165
380,15.240059411999027,bno085,-0.62109375,9.07421875,-3.1953125,-0.009765625,0.0,0.005859375,0.79095458984375,0.1986083984375,0.10357666015625,0.56939697265625,112.10378447539868,4.256461783313764,14.065721247006165
381,15.280059059999985,bno085,-0.58203125,9.0703125,-3.15625,0.00390625,0.02734375,0.01171875,0.791015625,0.1983642578125,0.103759765625,0.56939697265625,112.10173911611527,4.223503321293675,14.053226924325777
382,15.32005733799997,bno085,-0.58203125,9.0703125,-3.15625,0.00390625,0.02734375,0.01171875,0.791015625,0.19842529296875,0.104248046875,0.56927490234375,112.10442141179496,4.17861550308734,14.089811893431165
383,15.360057022999172,bno085,-0.58203125,9.0703125,-3.15625,0.009765625,0.01171875,0.0234375,0.79119873046875,0.19830322265625,0.104736328125,0.5689697265625,112.13262150911146,4.116181293327848,14.108689040295932
384,15.400059744999453,bno085,-0.54296875,9.0703125,-3.15625,0.00390625,0.005859375,0.013671875,0.79132080078125,0.1981201171875,0.10504150390625,0.56884765625,112.1450131528354,4.071881514378816,14.110267297456875
385,15.440058725998824,bno085,-0.58203125,9.07421875,-3.1953125,0.009765625,-0.001953125,0.01171875,0.79132080078125,0.1981201171875,0.10504150390625,0.56884765625,112.1450131528354,4.071881514378816,14.110267297456875
386,15.480057429998851,bno085,-0.54296875,9.07421875,-3.1953125,-0.00390625,0.001953125,0.0078125,0.79132080078125,0.197998046875,0.10504150390625,0.56884765625,112.14011337673828,4.064782730886191,14.097485628525545
387,15.520058078000147,bno085,-0.58203125,9.07421875,-3.1953125,-0.00390625,0.001953125,0.0078125,0.79132080078125,0.19793701171875,0.1051025390625,0.56884765625,112.13722970808743,4.055420920040364,14.095052772769419
388,15.560056762999011,bno085,-0.54296875,9.0703125,-3.15625,0.001953125,-0.001953125,0.0,0.79132080078125,0.19793701171875,0.1051025390625,0.56890869140625,112.13537188181708,4.056401259675118,14.09578254945686
389,15.600056299999778,bno085,-0.58203125,9.07421875,-3.1953125,-0.00390625,0.0,-0.005859375,0.79119873046875,0.19793701171875,0.10498046875,0.56903076171875,112.11431312490626,4.072613156976801,14.08690197941804
390,15.640056299000207,bno085,-0.58203125,9.0703125,-3.15625,0.005859375,0.005859375,0.0078125,0.79119873046875,0.19793701171875,0.10498046875,0.56903076171875,112.11431312490626,4.072613156976801,14.08690197941804
391,15.680056335999325,bno085,-0.54296875,9.0703125,-3.15625,0.0,-0.01171875,-0.0078125,0.791259765625,0.1978759765625,0.10516357421875,0.56890869140625,112.12338218791128,4.048353247844976,14.09213963090102
392,15.720057225000346,bno085,-0.58203125,9.07421875,-3.1953125,0.0,-0.01171875,-0.0078125,0.79132080078125,0.19793701171875,0.10491943359375,0.56890869140625,112.13667603197334,4.0738362346132275,14.083910260153605
393,15.760056002998681,bno085,-0.58203125,9.0703125,-3.15625,0.001953125,0.0,0.00390625,0.791259765625,0.1978759765625,0.10479736328125,0.5689697265625,112.12413134452518,4.084204011338225,14.069123264674191
394,15.800057577000189,bno085,-0.58203125,9.07421875,-3.1953125,0.0078125,-0.015625,-0.017578125,0.791259765625,0.197998046875,0.10443115234375,0.56903076171875,112.12978290295052,4.127154034958983,14.058893877439612
395,15.840055466000194,bno085,-0.58203125,9.07421875,-3.1953125,-0.00390625,0.00390625,-0.01171875,0.791259765625,0.197998046875,0.10443115234375,0.56903076171875,112.12978290295052,4.127154034958983,14.058893877439612
396,15.880056390999016,bno085,-0.58203125,9.11328125,-3.15625,0.0078125,0.00390625,0.0,0.79107666015625,0.1982421875,0.10418701171875,0.56927490234375,112.10659233431662,4.172455934172149,14.067895810403689
397,15.92005504000008,bno085,-0.62109375,9.0703125,-3.15625,0.0078125,0.00390625,0.0,0.79107666015625,0.1983642578125,0.10406494140625,0.5692138671875,112.11423261514999,4.1902067586907865,14.07204538462979
398,15.960054872999535,bno085,-0.58203125,9.07421875,-3.1953125,0.001953125,0.0,0.0,0.79119873046875,0.19830322265625,0.1041259765625,0.569091796875,112.1332659769407,4.176254790415303,14.07058946381047
399,16.000054909998653,bno085,-0.58203125,9.07421875,-3.1953125,0.0078125,-0.001953125,-0.001953125,0.791259765625,0.19830322265625,0.10400390625,0.56903076171875,112.14510219883604,4.185585684335391,14.063173757916985
400,16.04005494699959,bno085,-0.58203125,9.07421875,-3.1953125,-0.01953125,0.00390625,0.009765625,0.791259765625,0.19830322265625,0.10400390625,0.56903076171875,112.14510219883604,4.185585684335391,14.063173757916985
401,16.080055186999743,bno085,-0.58203125,9.0703125,-3.15625,0.01953125,-0.01953125,-0.009765625,0.7911376953125,0.19818115234375,0.104248046875,0.56915283203125,112.11651971318906,4.159827360582828,14.065224874553603
402,16.120055575998776,bno085,-0.62109375,9.07421875,-3.1953125,0.01953125,-0.01953125,-0.009765625,0.791259765625,0.19818115234375,0.10394287109375,0.569091796875,112.13876834061614,4.185274739482088,14.047158915306161
403,16.16005983499963,bno085,-0.58203125,9.07421875,-3.1953125,0.015625,0.001953125,0.013671875,0.79144287109375,0.197998046875,0.10400390625,0.56890869140625,112.16386745018556,4.161940761761635,14.033407509566375
404,16.200058761000037,bno085,-0.58203125,9.0703125,-3.15625,-0.001953125,-0.009765625,-0.001953125,0.7913818359375,0.19793701171875,0.10394287109375,0.56903076171875,112.14902576367201,4.167469072468709,14.023296723810624
405,16.240057742999852,bno085,-0.58203125,9.0703125,-3.15625,0.00390625,-0.00390625,0.00390625,0.7913818359375,0.19793701171875,0.10394287109375,0.56903076171875,112.14902576367201,4.167469072468709,14.023296723810624
406,16.280058853999435,bno085,-0.58203125,9.07421875,-3.1953125,-0.001953125,-0.005859375,-0.0078125,0.7913818359375,0.19793701171875,0.10394287109375,0.5689697265625,112.15088516608442,4.16649870933378,14.022573772912725
407,16.320058056999187,bno085,-0.58203125,9.0703125,-3.15625,-0.001953125,-0.005859375,-0.0078125,0.79144287109375,0.19793701171875,0.10382080078125,0.56890869140625,112.16272291562785,4.175835709682954,14.015160503561924
408,16.360057593999954,bno085,-0.58203125,9.0703125,-3.15625,0.00390625,-0.005859375,-0.001953125,0.79144287109375,0.197998046875,0.10369873046875,0.56890869140625,112.16604687293221,4.191011462558668,14.013650310228499
409,16.400056537999262,bno085,-0.58203125,9.07421875,-3.1953125,0.01953125,0.0,0.00390625,0.79168701171875,0.19793701171875,0.10369873046875,0.56866455078125,112.20746624963186,4.178302413989745,14.009225319362312
410,16.440057111998613,bno085,-0.62109375,9.0703125,-3.15625,0.021484375,0.00390625,0.01171875,0.79168701171875,0.19793701171875,0.10369873046875,0.56866455078125,112.20746624963186,4.178302413989745,14.009225319362312
411,16.480057667999063,bno085,-0.62109375,9.07421875,-3.1953125,0.0,-0.005859375,-0.00390625,0.79193115234375,0.19781494140625,0.10382080078125,0.56829833984375,112.24931000857494,4.1484811064912535,14.004855210911435
412,16.52005661200019,bno085,-0.58203125,9.07421875,-3.1953125,0.0,-0.005859375,-0.00390625,0.79193115234375,0.1978759765625,0.10382080078125,0.5682373046875,112.25362796608042,4.151052857512302,14.010526639600139
413,16.56005666799865,bno085,-0.58203125,9.07421875,-3.1953125,0.01171875,0.0,0.001953125,0.7919921875,0.1978759765625,0.103759765625,0.56817626953125,112.2650384349284,4.1545797189163585,14.007070879809145
414,16.600055871000222,bno085,-0.62109375,9.07421875,-3.1953125,-0.005859375,-0.005859375,-0.001953125,0.7918701171875,0.1978759765625,0.1036376953125,0.568359375,112.24209834162018,4.171764944046436,13.998916780137607
415,16.640058278999277,bno085,-0.58203125,9.07421875,-3.1953125,-0.001953125,0.00390625,-0.005859375,0.7918701171875,0.1978759765625,0.1036376953125,0.568359375,112.24209834162018,4.171764944046436,13.998916780137607
416,16.680059259999325,bno085,-0.58203125,9.07421875,-3.1953125,0.00390625,-0.005859375,-0.005859375,0.79180908203125,0.19793701171875,0.1036376953125,0.56842041015625,112.23357648854812,4.177598577071036,14.004818487452873
417,16.72005846399952,bno085,-0.62109375,9.07421875,-3.1953125,0.00390625,-0.005859375,-0.005859375,0.79180908203125,0.1978759765625,0.10345458984375,0.5684814453125,112.23056987718404,4.192474158085382,13.987304917341627
418,16.76005700099995,bno085,-0.58203125,9.07421875,-3.1953125,0.00390625,0.0,0.00390625,0.79193115234375,0.19775390625,0.1033935546875,0.568359375,112.24805278630772,4.186627386305894,13.971558013185673
419,16.80005829699985,bno085,-0.58203125,9.03125,-3.1953125,0.009765625,-0.009765625,-0.01171875,0.79205322265625,0.19781494140625,0.10308837890625,0.5682373046875,112.27463644190276,4.214683939916674,13.959218595363414
420,16.840057223000258,bno085,-0.62109375,9.0703125,-3.234375,0.0,0.005859375,0.015625,0.79205322265625,0.19781494140625,0.10308837890625,0.5682373046875,112.27463644190276,4.214683939916674,13.959218595363414
421,16.88005874099872,bno085,-0.58203125,9.07421875,-3.1953125,0.0,0.001953125,0.001953125,0.7921142578125,0.19769287109375,0.10321044921875,0.56817626953125,112.27983874133783,4.193676916623123,13.954810935336322
422,16.92005859299934,bno085,-0.62109375,9.0703125,-3.234375,-0.029296875,0.005859375,-0.015625,0.79217529296875,0.19757080078125,0.103271484375,0.568115234375,112.28548401519043,4.178488902999241,13.94645991181716
423,16.960056037998584,bno085,-0.62109375,9.07421875,-3.1953125,-0.029296875,0.005859375,-0.015625,0.79180908203125,0.19775390625,0.10333251953125,0.56854248046875,112.22467668660603,4.197987512443436,13.96734540039285
424,17.000058203999288,bno085,-0.62109375,9.07421875,-3.1953125,-0.046875,0.0078125,0.009765625,0.79107666015625,0.19775390625,0.10382080078125,0.5694580078125,112.08400517713939,4.181834650938051,13.995215118657022
425,17.04005644499921,bno085,-0.58203125,9.0703125,-3.15625,-0.015625,-0.005859375,-0.009765625,0.79083251953125,0.19757080078125,0.10382080078125,0.56988525390625,112.02725283530829,4.183229964224885,13.976263220632646
426,17.080056982000315,bno085,-0.58203125,9.0703125,-3.15625,0.017578125,-0.0390625,-0.029296875,0.79083251953125,0.19757080078125,0.10382080078125,0.56988525390625,112.02725283530829,4.183229964224885,13.976263220632646
427,17.120058648999475,bno085,-0.62109375,9.0703125,-3.15625,0.017578125,-0.0390625,-0.029296875,0.79095458984375,0.19757080078125,0.1026611328125,0.5699462890625,112.05183802402448,4.2919596820168415,13.904255092664208
428,17.16005909299929,bno085,-0.62109375,9.0703125,-3.15625,0.017578125,-0.001953125,0.013671875,0.79119873046875,0.19732666015625,0.1025390625,0.5697021484375,112.08675026615256,4.280251417074708,13.872790647949383
429,17.20005846299864,bno085,-0.58203125,9.0703125,-3.15625,0.00390625,-0.01953125,0.01171875,0.79144287109375,0.19683837890625,0.102294921875,0.569580078125,112.10906066991774,4.267900074593317,13.809315302626022
430,17.240057629998773,bno085,-0.62109375,9.0703125,-3.15625,-0.01953125,-0.07421875,0.013671875,0.79144287109375,0.19683837890625,0.102294921875,0.569580078125,112.10906066991774,4.267900074593317,13.809315302626022
431,17.280057296999075,bno085,-0.62109375,9.0703125,-3.15625,-0.03515625,-0.041015625,0.017578125,0.7913818359375,0.1953125,0.10125732421875,0.5703125,112.02408107465291,4.2905900159377035,13.58999105011062
432,17.32005724099872,bno085,-0.58203125,9.0703125,-3.15625,-0.08984375,-0.0234375,0.0078125,0.7911376953125,0.19451904296875,0.10089111328125,0.571044921875,111.93645035085801,4.295705965140263,13.487119024284695
433,17.360058147998643,bno085,-0.50390625,9.109375,-3.12109375,-0.08984375,-0.0234375,0.0078125,0.7901611328125,0.1932373046875,0.1015625,0.57275390625,111.68380348092235,4.203936285063169,13.397769822993364
434,17.40005585200015,bno085,-0.50390625,9.30078125,-3.04296875,-0.47265625,-0.1015625,0.20703125,0.78564453125,0.1868896484375,0.105712890625,0.5802001953125,110.51663480177854,3.6431308277645345,13.014191366886307
435,17.440056388999437,bno085,-0.46484375,9.30078125,-2.73828125,-1.119140625,0.037109375,0.580078125,0.78564453125,0.1868896484375,0.105712890625,0.5802001953125,110.51663480177854,3.6431308277645345,13.014191366886307
436,17.48005737099993,bno085,-0.23828125,9.30078125,-2.0078125,-1.59765625,0.271484375,0.71484375,0.7730712890625,0.17333984375,0.11834716796875,0.59857177734375,107.56558862042523,2.162253564845145,12.497785518107802
437,17.52005735199964,bno085,0.14453125,8.99609375,-2.046875,-1.59765625,0.271484375,0.71484375,0.75433349609375,0.1573486328125,0.138671875,0.6220703125,103.57459043643925,-0.011779633906335442,12.401688707982128
438,17.560065277999456,bno085,0.14453125,9.30078125,-1.703125,-0.27734375,0.08203125,0.048828125,0.75048828125,0.15478515625,0.143310546875,0.62628173828125,102.81042031795145,-0.4632016385260376,12.504271800095157
439,17.600057703999482,bno085,0.18359375,9.375,-1.625,0.01953125,0.12109375,-0.0625,0.749755859375,0.15777587890625,0.1446533203125,0.62615966796875,102.79485377687472,-0.37207113832241645,12.879755832360246
440,17.64005522200023,bno085,0.0703125,9.4140625,-1.546875,0.169921875,0.005859375,-0.02734375,0.749755859375,0.15777587890625,0.1446533203125,0.62615966796875,102.79485377687472,-0.37207113832241645,12.879755832360246
441,17.68005518499922,bno085,0.14453125,9.375,-1.7421875,0.076171875,-0.03515625,-0.015625,0.75177001953125,0.1593017578125,0.14361572265625,0.62353515625,103.20459654112095,-0.25727656753262385,12.939847447996264
442,17.720054796000113,bno085,0.03125,9.375,-1.7421875,0.103515625,-0.05859375,-0.05859375,0.75360107421875,0.1597900390625,0.1422119140625,0.62152099609375,103.54302277961334,-0.16516694890034933,12.880202397094981
443,17.760055036998892,bno085,0.03125,9.453125,-1.703125,0.103515625,-0.05859375,-0.05859375,0.75482177734375,0.16015625,0.14044189453125,0.62042236328125,103.76863056979201,-0.02134939479278741,12.787189751276054
444,17.80005483399873,bno085,0.109375,9.41796875,-1.85546875,-0.19140625,-0.001953125,0.009765625,0.7518310546875,0.15997314453125,0.14129638671875,0.62384033203125,103.23774711426027,0.00035598505713721625,12.838291556631996
445,17.84005472299941,bno085,0.0703125,9.49609375,-1.6640625,-0.37890625,0.08984375,0.03125,0.7518310546875,0.15997314453125,0.14129638671875,0.62384033203125,103.23774711426027,0.00035598505713721625,12.838291556631996
446,17.880055388999608,bno085,-0.12109375,9.98828125,-1.1640625,-1.5,0.029296875,-0.1171875,0.7445068359375,0.15997314453125,0.145263671875,0.6317138671875,101.96640439028897,-0.09004261081320104,13.14346951353144
447,17.92005494499972,bno085,0.453125,9.0703125,-1.01171875,-1.5,0.029296875,-0.1171875,0.72198486328125,0.15777587890625,0.1505126953125,0.6566162109375,98.07287451266754,0.13007450725608544,13.390483442895947
448,17.960055186000318,bno085,0.60546875,9.22265625,-0.78125,-2.162109375,0.349609375,-0.259765625,0.68560791015625,0.15771484375,0.159423828125,0.69256591796875,92.20410062733379,0.6661696655852354,14.152727152598453
449,18.00005450000026,bno085,0.03125,9.6015625,1.0546875,-2.236328125,0.44921875,-0.140625,0.6434326171875,0.1605224609375,0.1732177734375,0.72821044921875,85.88261282204344,1.2292310214193114,15.57841101680258
450,18.040054388999124,bno085,0.0703125,9.453125,1.66796875,-1.5703125,-0.259765625,-0.740234375,0.6434326171875,0.1605224609375,0.1732177734375,0.72821044921875,85.88261282204344,1.2292310214193114,15.57841101680258
451,18.08005685199896,bno085,-0.12109375,9.45703125,1.9375,-0.93359375,-0.10546875,0.748046875,0.6090087890625,0.15399169921875,0.1822509765625,0.7564697265625,80.6351952793387,1.2217630431341004,15.865857746655001
452,18.120055223000236,bno085,0.18359375,8.8359375,2.359375,-0.93359375,-0.10546875,0.748046875,0.58941650390625,0.1387939453125,0.1971435546875,0.77099609375,77.33838166611201,-0.4731549209382442,16.065749370861706
453,18.160059537000052,bno085,0.8359375,9.5625,2.89453125,-1.8046875,0.0703125,0.083984375,0.5587158203125,0.1309814453125,0.2054443359375,0.792724609375,72.84368111641892,-0.6893113672403712,16.3483356794725
454,18.200056703999508,bno085,1.02734375,8.375,3.62109375,-0.91796875,-0.275390625,-0.02734375,0.5362548828125,0.11871337890625,0.2080078125,0.80938720703125,69.4227015112354,-1.1801033535767498,15.808766392647277
455,18.24005740800021,bno085,1.06640625,9.11328125,3.66015625,-1.873046875,-0.396484375,0.275390625,0.506103515625,0.092529296875,0.21002197265625,0.83135986328125,64.66636331710765,-2.7089346318363976,14.406664544442169
456,18.280058018999625,bno085,0.98828125,7.6875,3.66015625,-0.8984375,-1.455078125,1.294921875,0.506103515625,0.092529296875,0.21002197265625,0.83135986328125,64.66636331710765,-2.7089346318363976,14.406664544442169
457,18.320057944998553,bno085,1.296875,7.92578125,4.65625,-0.8984375,-1.455078125,1.294921875,0.4989013671875,0.0386962890625,0.21844482421875,0.8377685546875,62.44794091755662,-8.038789691413488,11.98044331826826
458,18.360056740999426,bno085,2.75,7.30859375,4.6171875,-0.6328125,-1.732421875,2.119140625,0.49188232421875,-0.0228271484375,0.2403564453125,0.8365478515625,60.461288395970314,-15.118575889071705,10.713320471267256
459,18.40005622299941,bno085,2.7109375,7.54296875,4.54296875,-0.70703125,-0.9375,1.751953125,0.47662353515625,-0.07000732421875,0.26495361328125,0.8353271484375,57.736740885189974,-20.885468739253497,11.008993113506664
460,18.440057481999247,bno085,4.0546875,6.08203125,6.37890625,-0.974609375,0.552734375,0.837890625,0.4493408203125,-0.08447265625,0.29034423828125,0.84063720703125,53.55786074727723,-23.099473356829193,13.78089566217103
461,18.48005870399902,bno085,4.16796875,6.65625,5.4609375,-0.376953125,-0.109375,0.98046875,0.4493408203125,-0.08447265625,0.29034423828125,0.84063720703125,53.55786074727723,-23.099473356829193,13.78089566217103
462,18.520059518999915,bno085,3.8984375,6.3515625,5.9609375,-1.7109375,0.0546875,0.515625,0.4404296875,-0.1019287109375,0.3089599609375,0.83673095703125,51.864389876744525,-25.69390796352137,15.307967943234294
463,18.560057130000132,bno085,4.51171875,5.08984375,4.92578125,-1.7109375,0.0546875,0.515625,0.40106201171875,-0.118896484375,0.32269287109375,0.84906005859375,46.089412271903996,-26.956291412569854,17.427260594579714
464,18.60005631599961,bno085,5.203125,6.04296875,6.37890625,-2.2578125,0.947265625,-0.923828125,0.34771728515625,-0.108642578125,0.31439208984375,0.8765869140625,39.48410562173907,-23.712932102073538,18.3779791522034
465,18.640056870999615,bno085,3.40234375,4.12890625,7.640625,-2.935546875,2.150390625,-1.041015625,0.274169921875,-0.07977294921875,0.29644775390625,0.911376953125,31.370560289682793,-17.511172820083615,18.77772803549091
466,18.68005768599869,bno085,2.55859375,3.09375,7.83984375,-2.853515625,1.203125,-0.419921875,0.274169921875,-0.07977294921875,0.29644775390625,0.911376953125,31.370560289682793,-17.511172820083615,18.77772803549091
467,18.720058074999542,bno085,2.40625,2.59765625,9.2109375,-2.357421875,1.08203125,0.208984375,0.198486328125,-0.06732177734375,0.296875,0.931640625,22.811545336767722,-13.73035762448685,20.38504125615633
468,18.76005800100029,bno085,2.29296875,1.828125,9.0234375,-2.357421875,1.08203125,0.208984375,0.13507080078125,-0.063232421875,0.3046875,0.94073486328125,15.626788381938589,-11.350179344108563,22.2355117734018
469,18.80005725999945,bno085,2.1015625,1.1796875,8.75,-1.755859375,0.076171875,0.1015625,0.0933837890625,-0.07171630859375,0.30938720703125,0.943603515625,10.6344130501645,-10.921987044733758,23.21311395797461
470,18.840057482999327,bno085,2.25390625,0.375,9.52734375,-0.869140625,-0.33203125,0.119140625,0.07281494140625,-0.0850830078125,0.31781005859375,0.9415283203125,7.7916875166023045,-11.764950965553913,24.414940684590825
471,18.88005666800018,bno085,2.328125,0.18359375,9.3671875,-0.638671875,0.16796875,-0.044921875,0.07281494140625,-0.0850830078125,0.31781005859375,0.9415283203125,7.7916875166023045,-11.764950965553913,24.414940684590825
472,18.9200587790001,bno085,2.21484375,-0.0078125,9.29296875,0.150390625,-0.03515625,-0.3671875,0.056396484375,-0.08685302734375,0.31884765625,0.942138671875,5.896645553836991,-11.377818754689947,24.734112431711424
473,18.960056668000107,bno085,2.3671875,-0.0859375,9.55859375,0.150390625,-0.03515625,-0.3671875,0.057861328125,-0.0870361328125,0.31268310546875,0.944091796875,6.126317593880814,-11.392289130496183,23.96261944041879
474,19.000056075999964,bno085,2.40625,0.10546875,9.29296875,0.216796875,0.08203125,-0.787109375,0.0634765625,-0.08306884765625,0.2943115234375,0.949951171875,7.097662115621509,-10.965553524170872,21.67180504357897
475,19.04005601999961,bno085,1.87109375,0.22265625,9.17578125,-0.322265625,0.654296875,-1.01171875,0.0556640625,-0.070556640625,0.2691650390625,0.95892333984375,6.868286160456559,-9.077813701630875,18.782427524074894
476,19.080056427999807,bno085,1.79296875,0.14453125,9.29296875,-0.693359375,0.86328125,-1.078125,0.0556640625,-0.070556640625,0.2691650390625,0.95892333984375,6.868286160456559,-9.077813701630875,18.782427524074894
477,19.120060130999263,bno085,1.296875,-0.16015625,9.59375,-0.63671875,0.888671875,-1.09375,0.037109375,-0.05413818359375,0.2379150390625,0.96905517578125,5.48510629069169,-6.4314763808516044,15.311366198886098
478,19.16005964999931,bno085,0.98828125,-0.31640625,9.7109375,-0.63671875,0.888671875,-1.09375,0.01763916015625,-0.0350341796875,0.20391845703125,0.97821044921875,3.921081043074468,-3.547274022210684,11.535756148450039
479,19.20005929800027,bno085,0.8359375,-0.35546875,9.328125,-0.2109375,0.72265625,-0.6328125,0.00860595703125,-0.01824951171875,0.186279296875,0.9822998046875,3.304164515034874,-1.3471801243993693,9.598244317383053
480,19.24005876099909,bno085,0.60546875,-0.390625,9.48828125,-0.279296875,0.615234375,-0.271484375,-0.00189208984375,-0.0048828125,0.17767333984375,0.98406982421875,2.395220520696175,0.42439453364301616,8.686779732897142
481,19.280059187000006,bno085,0.4921875,-0.5078125,9.671875,-0.408203125,0.09765625,0.275390625,-0.00189208984375,-0.0048828125,0.17767333984375,0.98406982421875,2.395220520696175,0.42439453364301616,8.686779732897142
482,19.320055909000075,bno085,0.56640625,-0.9296875,9.52734375,-0.42578125,-0.068359375,0.2890625,-0.01226806640625,-0.001708984375,0.1763916015625,0.9842529296875,1.2875277310128108,0.998156422449723,8.564023283078512
483,19.360055834999002,bno085,0.453125,-1.00390625,9.4453125,-0.42578125,-0.068359375,0.2890625,-0.022216796875,-0.00372314453125,0.17889404296875,0.98358154296875,0.12941287809723284,0.9648507517012129,8.85704472503241
484,19.400060873000257,bno085,0.4140625,-0.96484375,9.48828125,-0.126953125,0.224609375,0.17578125,-0.02691650390625,-0.0008544921875,0.1806640625,0.983154296875,-0.3374176710713053,1.3802185517387113,9.074184399637303
485,19.440058816999226,bno085,0.3359375,-1.12109375,9.4453125,-0.14453125,0.017578125,0.068359375,-0.0299072265625,-0.0008544921875,0.1810302734375,0.9830322265625,-0.6737943059361069,1.4413534828204357,9.119008961329836
486,19.480055909998555,bno085,0.30078125,-1.1953125,9.671875,-0.115234375,0.06640625,0.130859375,-0.0299072265625,-0.0008544921875,0.1810302734375,0.9830322265625,-0.6737943059361069,1.4413534828204357,9.119008961329836
487,19.520058001999132,bno085,0.26171875,-1.15625,9.5546875,-0.01953125,0.0703125,0.068359375,-0.033203125,-0.000244140625,0.17877197265625,0.98333740234375,-1.0384418670225393,1.5823756625697332,8.858371069040802
488,19.560057150998546,bno085,0.22265625,-1.15625,9.4453125,-0.01953125,0.0703125,0.068359375,-0.03515625,0.001220703125,0.1783447265625,0.98333740234375,-1.229840232630049,1.7881948929018097,8.811398103369182
489,19.60005605799961,bno085,0.26171875,-1.234375,9.63671875,0.005859375,-0.103515625,0.0,-0.03546142578125,-0.0006103515625,0.1773681640625,0.9835205078125,-1.3043349524337577,1.589376201679969,8.695178531766874
490,19.640056872998684,bno085,0.26171875,-1.12109375,9.55859375,0.1328125,-0.009765625,0.080078125,-0.03240966796875,-0.0008544921875,0.177001953125,0.98370361328125,-0.965913194453857,1.5004305552761037,8.65118816421896
491,19.68005961400013,bno085,0.30078125,-1.08203125,9.4453125,0.0546875,-0.1640625,0.103515625,-0.03240966796875,-0.0008544921875,0.177001953125,0.98370361328125,-0.965913194453857,1.5004305552761037,8.65118816421896
492,19.720058835999225,bno085,0.4140625,-1.1953125,9.59765625,0.30078125,-0.68359375,0.302734375,-0.02923583984375,-0.00384521484375,0.17791748046875,0.98358154296875,-0.6666079760585604,1.0969512022550165,8.749295325796218
493,19.76005852199887,bno085,0.7578125,-1.12109375,9.59765625,0.30078125,-0.68359375,0.302734375,-0.0189208984375,-0.0203857421875,0.1834716796875,0.98260498046875,0.15865091850338098,-0.994180854863545,9.344365115609184
494,19.800057484999343,bno085,1.71875,-0.66015625,9.21484375,0.7890625,-5.375,0.708984375,0.021728515625,-0.13330078125,0.20263671875,0.96990966796875,2.1438173518114665,-14.708402998050138,11.173932582562317
495,19.84005711499958,bno085,4.89453125,-0.0859375,8.5625,0.88671875,-9.9765625,2.28125,0.08172607421875,-0.35247802734375,0.2391357421875,0.90106201171875,2.1475643509301916,-41.879370237255394,16.036750087632143
496,19.88005720699948,bno085,6.08203125,-0.69921875,6.375,-0.908203125,-9.15234375,3.67578125,0.08172607421875,-0.35247802734375,0.2391357421875,0.90106201171875,2.1475643509301916,-41.879370237255394,16.036750087632143
497,19.920057706998705,bno085,10.2578125,-3.37890625,3.31640625,-1.287109375,-3.412109375,4.0078125,0.08203125,-0.5418701171875,0.28594970703125,0.7860107421875,-17.92992589024229,-64.63937011641409,37.75859524409435
498,19.9600569109989,bno085,10.41796875,-4.4140625,1.09375,-1.287109375,-3.412109375,4.0078125,0.029541015625,-0.62005615234375,0.33843994140625,0.70721435546875,-54.25649354963203,-65.90240851719196,73.89340309621257
499,20.00005735599916,bno085,8.61328125,-4.3359375,-0.09375,-1.544921875,-1.529296875,0.806640625,0.0048828125,-0.66748046875,0.3330078125,0.666015625,-73.08618486182533,-65.73574181715537,90.03058830946675
500,20.040056652000203,bno085,6.9609375,-3.5703125,-0.20703125,-1.279296875,-1.1875,-0.462890625,0.004150390625,-0.69775390625,0.3055419921875,0.64788818359375,-84.19501542343875,-67.77220433943013,98.52153314539902
501,20.08005557799879,bno085,8.875,-4.26171875,-0.28515625,-0.3359375,0.43359375,-1.408203125,0.004150390625,-0.69775390625,0.3055419921875,0.64788818359375,-84.19501542343875,-67.77220433943013,98.52153314539902
502,20.12005735599996,bno085,9.953125,-4.26171875,-0.16796875,-0.158203125,-0.009765625,-0.755859375,0.0198974609375,-0.69610595703125,0.27801513671875,0.66162109375,-82.21721913887731,-71.45445733893725,95.36645616442762
503,20.160058874998867,bno085,9.1484375,-3.609375,-0.0546875,-0.158203125,-0.009765625,-0.755859375,0.03216552734375,-0.6968994140625,0.2606201171875,0.6673583984375,-81.70594104950946,-73.91342025032856,94.31171203294262
504,20.200062152998726,bno085,9.41796875,-3.265625,-0.20703125,-0.0625,0.12109375,-0.75,0.0426025390625,-0.6947021484375,0.2479248046875,0.67388916015625,-79.4613171685965,-75.84041512296778,91.80622068342448
505,20.240057985998646,bno085,9.640625,-3.2265625,-0.0546875,0.037109375,0.03125,-0.4609375,0.0523681640625,-0.69281005859375,0.23919677734375,0.67828369140625,-77.30437981297781,-77.35822133031938,89.68340861497848
506,20.280056708999837,bno085,9.0703125,-2.95703125,-0.015625,0.04296875,-0.09375,-0.0703125,0.0523681640625,-0.69281005859375,0.23919677734375,0.67828369140625,-77.30437981297781,-77.35822133031938,89.68340861497848
507,20.320060337999166,bno085,9.3359375,-2.8828125,-0.20703125,-0.017578125,0.017578125,-0.248046875,0.05548095703125,-0.694091796875,0.2381591796875,0.67706298828125,-78.16058076691706,-77.69915457014582,90.69554853825083
508,20.360059413000272,bno085,9.296875,-2.8046875,-0.16796875,-0.017578125,0.017578125,-0.248046875,0.05841064453125,-0.69390869140625,0.23468017578125,0.67822265625,-77.66802409462113,-78.22219961108215,90.13891115181961
509,20.40005746799943,bno085,9.296875,-2.73046875,-0.1328125,-0.05859375,0.052734375,-0.20703125,0.05999755859375,-0.69329833984375,0.2298583984375,0.680419921875,-76.6309363740398,-78.7403781984173,88.8163493153822
510,20.440056782999818,bno085,9.375,-2.65234375,-0.16796875,-0.0078125,-0.05859375,-0.115234375,0.061767578125,-0.69378662109375,0.22698974609375,0.6806640625,-76.70015876071648,-79.11647977478758,88.78089657739001
511,20.48005511699921,bno085,9.2265625,-2.57421875,-0.16796875,-0.044921875,-0.056640625,-0.197265625,0.061767578125,-0.69378662109375,0.22698974609375,0.6806640625,-76.70015876071648,-79.11647977478758,88.78089657739001
512,20.520056486999238,bno085,9.3359375,-2.5,-0.24609375,-0.068359375,0.0234375,-0.27734375,0.06463623046875,-0.69476318359375,0.22296142578125,0.68072509765625,-77.07612199989963,-79.6788963744113,89.03899644882863
513,20.560055023999666,bno085,9.33984375,-2.421875,-0.20703125,-0.068359375,0.0234375,-0.27734375,0.06707763671875,-0.6949462890625,0.21881103515625,0.681640625,-76.72332362667365,-80.21273695658249,88.52691832808243
514,20.600054820999503,bno085,9.41796875,-2.421875,-0.16796875,-0.041015625,-0.013671875,-0.197265625,0.06964111328125,-0.6951904296875,0.2152099609375,0.68231201171875,-76.47870631967854,-80.71333036219741,88.17953099198685
515,20.640062727999975,bno085,9.30078125,-2.30859375,-0.24609375,0.0,0.009765625,-0.1953125,0.07232666015625,-0.69488525390625,0.212646484375,0.68316650390625,-75.79303568393487,-81.13751166744073,87.49170133717317
516,20.680055172999346,bno085,9.37890625,-2.23046875,-0.20703125,-0.029296875,0.060546875,-0.083984375,0.07232666015625,-0.69488525390625,0.212646484375,0.68316650390625,-75.79303568393487,-81.13751166744073,87.49170133717317
517,20.72005478400024,bno085,9.41796875,-2.23046875,-0.24609375,-0.01171875,0.078125,0.087890625,0.06396484375,-0.7000732421875,0.21893310546875,0.6766357421875,-81.54360931769868,-79.93350280918929,93.09231514661903
518,20.760054839998702,bno085,9.375,-2.34375,-0.20703125,-0.01171875,0.078125,0.087890625,0.06011962890625,-0.70013427734375,0.22113037109375,0.67620849609375,-81.65644708316633,-79.4379707615067,93.08475760178732
519,20.80005474799873,bno085,9.68359375,-2.3828125,-0.16796875,0.013671875,0.02734375,0.185546875,0.05706787109375,-0.6998291015625,0.22418212890625,0.67584228515625,-81.55538941277895,-78.94169381327966,92.99973508176484
520,20.84005471099954,bno085,9.375,-2.34375,-0.20703125,-0.013671875,0.037109375,0.021484375,0.05621337890625,-0.69927978515625,0.22442626953125,0.6763916015625,-81.08634610158477,-78.85605544914905,92.48518567367367
521,20.88005643299948,bno085,9.30078125,-2.30859375,-0.16796875,-0.02734375,0.013671875,-0.16015625,0.05621337890625,-0.69927978515625,0.22442626953125,0.6763916015625,-81.08634610158477,-78.85605544914905,92.48518567367367
522,20.920055155998853,bno085,9.453125,-2.34375,-0.1328125,0.013671875,-0.0234375,-0.11328125,0.0577392578125,-0.6988525390625,0.22222900390625,0.6773681640625,-80.55686031829977,-79.16256736151617,91.89271167275507
523,20.960054989000128,bno085,9.453125,-2.30859375,-0.16796875,0.013671875,-0.0234375,-0.11328125,0.05987548828125,-0.698974609375,0.22039794921875,0.67767333984375,-80.54132841938676,-79.48705287978899,91.89093525523232
524,21.00005486000009,bno085,9.1875,-2.19140625,-0.16796875,-0.044921875,0.021484375,-0.099609375,0.0606689453125,-0.69903564453125,0.218505859375,0.67816162109375,-80.4326524831223,-79.70627250348346,91.68388587802738
525,21.040054970999336,bno085,9.375,-2.15234375,-0.09375,-0.021484375,0.029296875,-0.1640625,0.06219482421875,-0.69854736328125,0.216064453125,0.6793212890625,-79.76278357160572,-80.03267288245358,90.92923033630343
526,21.080055507998622,bno085,9.453125,-2.15234375,-0.1328125,0.01953125,-0.048828125,0.009765625,0.06219482421875,-0.69854736328125,0.216064453125,0.6793212890625,-79.76278357160572,-80.03267288245358,90.92923033630343
527,21.120055211998988,bno085,9.30078125,-2.078125,-0.1328125,0.013671875,0.01171875,-0.087890625,0.06280517578125,-0.69921875,0.216064453125,0.6785888671875,-80.41585202261795,-80.08007057388265,91.62869546652965
528,21.16005652700005,bno085,9.4140625,-2.1171875,-0.1328125,0.013671875,0.01171875,-0.087890625,0.06390380859375,-0.69927978515625,0.215576171875,0.6785888671875,-80.45684669921164,-80.2098763726258,91.71560756856454
529,21.200057637999635,bno085,9.453125,-2.0390625,-0.1328125,0.0078125,0.0234375,-0.140625,0.0660400390625,-0.69879150390625,0.213623046875,0.67950439453125,-79.83208326474872,-80.54638937535358,91.0971452466522
530,21.240055250000296,bno085,9.37890625,-1.92578125,-0.0546875,-0.01953125,0.12890625,-0.283203125,0.06976318359375,-0.6966552734375,0.208984375,0.6827392578125,-77.10783199356759,-81.22596926028639,88.28401708999573
531,21.280058230999202,bno085,9.453125,-1.80859375,-0.09375,-0.041015625,0.0625,-0.19921875,0.06976318359375,-0.6966552734375,0.208984375,0.6827392578125,-77.10783199356759,-81.22596926028639,88.28401708999573
532,21.320055139000033,bno085,9.45703125,-1.6953125,-0.09375,-0.0703125,0.0625,-0.1796875,0.07244873046875,-0.69537353515625,0.20477294921875,0.68505859375,-75.03282645404585,-81.77299653338808,86.07085726332502
533,21.36005604699858,bno085,9.30078125,-1.65625,-0.09375,-0.0703125,0.0625,-0.1796875,0.07391357421875,-0.69427490234375,0.20098876953125,0.6871337890625,-73.02334307602838,-82.1753205856329,83.86193269151201
534,21.400054750998606,bno085,9.5703125,-1.65625,-0.015625,-0.02734375,0.04296875,-0.158203125,0.0760498046875,-0.69329833984375,0.19793701171875,0.688720703125,-71.10389615844606,-82.56781260761768,81.85845652576
535,21.440057566000178,bno085,9.3359375,-1.54296875,-0.015625,-0.03515625,0.00390625,-0.158203125,0.07763671875,-0.693115234375,0.1951904296875,0.68951416015625,-70.12756281062386,-82.9039686403215,80.77766501538365
536,21.480056583999612,bno085,9.453125,-1.50390625,-0.015625,-0.0078125,0.01171875,-0.08203125,0.07763671875,-0.693115234375,0.1951904296875,0.68951416015625,-70.12756281062386,-82.9039686403215,80.77766501538365
537,21.520057992000147,bno085,9.5703125,-1.46484375,0.0234375,0.001953125,0.001953125,-0.017578125,0.07867431640625,-0.69287109375,0.19366455078125,0.6900634765625,-69.34779250944838,-83.09870120706603,79.95277692776415
538,21.560056713999074,bno085,9.4921875,-1.46484375,-0.0546875,0.001953125,0.001953125,-0.017578125,0.078857421875,-0.69281005859375,0.19342041015625,0.690185546875,-69.18800608507291,-83.13081480657037,79.78751267625911
539,21.600057547999313,bno085,9.41796875,-1.46484375,0.0234375,0.06640625,-0.017578125,0.02734375,0.07928466796875,-0.69287109375,0.19488525390625,0.689697265625,-69.63495409178122,-83.05832437031451,80.3929763339013
540,21.640057954999065,bno085,9.53125,-1.42578125,0.0234375,-0.021484375,0.017578125,-0.033203125,0.0792236328125,-0.692626953125,0.19476318359375,0.69000244140625,-69.2817585839239,-83.05638007300576,80.02580192270243
541,21.68005653,bno085,9.33984375,-1.46484375,0.0234375,0.009765625,0.02734375,-0.072265625,0.0792236328125,-0.692626953125,0.19476318359375,0.69000244140625,-69.2817585839239,-83.05638007300576,80.02580192270243
542,21.720057585998802,bno085,9.57421875,-1.42578125,0.05859375,0.001953125,0.005859375,-0.037109375,0.080078125,-0.69232177734375,0.19403076171875,0.69036865234375,-68.62023130718417,-83.17284589288971,79.3710509407494
543,21.760057789999337,bno085,9.375,-1.42578125,0.0234375,0.001953125,0.005859375,-0.037109375,0.078125,-0.69537353515625,0.19537353515625,0.6871337890625,-73.11909512177553,-82.97636265252154,83.8163703953287
544,21.800057492999258,bno085,9.4140625,-1.42578125,0.0234375,0.0,0.029296875,-0.0859375,0.07891845703125,-0.69635009765625,0.19415283203125,0.68646240234375,-74.15008314353676,-83.15248207625105,84.80462248818765
545,21.840057289999095,bno085,9.49609375,-1.38671875,0.05859375,0.01953125,0.009765625,-0.005859375,0.0797119140625,-0.69671630859375,0.19366455078125,0.68609619140625,-74.54811385940626,-83.26025482284818,85.22382020034095
546,21.880058271999587,bno085,9.41796875,-1.38671875,0.0234375,0.029296875,-0.015625,0.037109375,0.0797119140625,-0.69671630859375,0.19366455078125,0.68609619140625,-74.54811385940626,-83.26025482284818,85.22382020034095
547,21.92005836499993,bno085,9.4140625,-1.42578125,0.05859375,0.005859375,0.02734375,-0.044921875,0.07977294921875,-0.6971435546875,0.19427490234375,0.68548583984375,-75.27011817906747,-83.22217782685713,86.00086151675985
548,21.960057680000318,bno085,9.45703125,-1.38671875,0.0234375,0.005859375,0.02734375,-0.044921875,0.080810546875,-0.6968994140625,0.193603515625,0.685791015625,-74.79698921745704,-83.35802775563575,85.55512385003911
549,22.000058383999203,bno085,9.49609375,-1.38671875,0.05859375,0.009765625,0.013671875,0.01171875,0.08148193359375,-0.69683837890625,0.1934814453125,0.685791015625,-74.68996657899099,-83.42220490734636,85.49191399596018
550,22.040056975998596,bno085,9.49609375,-1.38671875,0.05859375,0.001953125,0.009765625,0.025390625,0.08148193359375,-0.6968994140625,0.1937255859375,0.6856689453125,-74.83022532476332,-83.40391410727445,85.65259496140644
551,22.08005797700025,bno085,9.41796875,-1.38671875,0.05859375,0.001953125,0.0078125,0.0234375,0.08148193359375,-0.6968994140625,0.1937255859375,0.6856689453125,-74.83022532476332,-83.40391410727445,85.65259496140644
552,22.120056735999242,bno085,9.453125,-1.42578125,0.05859375,0.009765625,0.005859375,-0.009765625,0.08135986328125,-0.69708251953125,0.19390869140625,0.6854248046875,-75.12882675468805,-83.38098838018826,85.95635627609856
