sample,time_s,sensor,accel_x_mps2,accel_y_mps2,accel_z_mps2,gyro_x_radps,gyro_y_radps,gyro_z_radps,quat_i,quat_j,quat_k,quat_real,roll_deg,pitch_deg,yaw_deg
0,0.04005825899912452,bno085,0.15625,0.0234375,9.6640625,0.0,0.001953125,-0.001953125,0.0009765625,-0.0081787109375,0.0,0.99993896484375,0.0,-0.0,-9.925213638530773e-08
1,0.08005816699915158,bno085,0.1953125,0.0234375,9.62890625,0.005859375,0.001953125,0.001953125,0.0009765625,-0.00830078125,0.0,0.99993896484375,2.2343494319502398e-07,-0.013989273187431643,1.3561500227815629e-05
2,0.12005735299953813,bno085,0.1953125,0.0234375,9.62890625,-0.001953125,0.0,0.0,0.0009765625,-0.00830078125,0.0,0.99993896484375,2.2343494319502398e-07,-0.013989273187431643,1.3561500227815629e-05
3,0.16005874299935385,bno085,0.15625,0.05859375,9.625,-0.001953125,-0.001953125,0.0,0.00103759765625,-0.00836181640625,0.0,0.99993896484375,0.006994057684415811,-0.02098404520649817,-3.809149035655219e-05
4,0.20005909599967708,bno085,0.15625,0.0234375,9.625,-0.001953125,-0.001953125,0.0,0.00103759765625,-0.0084228515625,0.0,0.99993896484375,0.006994176748767933,-0.027978718117486888,-3.168796751860423e-05
5,0.24005931899955613,bno085,0.15625,0.0234375,9.625,0.00390625,-0.001953125,0.0,0.0010986328125,-0.00848388671875,6.103515625e-05,0.99993896484375,0.014043098350866715,-0.03496755248565573,0.00690906831876941
6,0.28005744999973103,bno085,0.15625,0.05859375,9.625,-0.001953125,0.001953125,0.001953125,0.00115966796875,-0.008544921875,6.103515625e-05,0.99993896484375,0.021036546888312555,-0.04196279864426049,0.006855282326704731
7,0.32005711700003303,bno085,0.15625,0.0234375,9.625,-0.001953125,-0.001953125,0.0,0.00115966796875,-0.008544921875,6.103515625e-05,0.99993896484375,0.021036546888312555,-0.04196279864426049,0.006855282326704731
8,0.3600580999991507,bno085,0.15625,0.0234375,9.625,0.0,0.001953125,0.0,0.00115966796875,-0.008544921875,6.103515625e-05,0.99993896484375,0.021036546888312555,-0.04196279864426049,0.006855282326704731
9,0.40005669299989677,bno085,0.15625,0.0234375,9.625,0.0,0.001953125,0.0,0.00115966796875,-0.008544921875,6.103515625e-05,0.99993896484375,0.021036546888312555,-0.04196279864426049,0.006855282326704731
10,0.4400576389998605,bno085,0.1953125,0.05859375,9.62890625,-0.00390625,0.001953125,-0.00390625,0.00115966796875,-0.008544921875,6.103515625e-05,0.99993896484375,0.021036546888312555,-0.04196279864426049,0.006855282326704731
11,0.4800591399998666,bno085,0.15625,0.0234375,9.625,0.0,-0.001953125,0.0,0.0010986328125,-0.008544921875,6.103515625e-05,0.99993896484375,0.01404279835422113,-0.04196225509577305,0.006915045551639667
12,0.5200590849999571,bno085,0.15625,0.0234375,9.625,0.0,0.001953125,0.001953125,0.0010986328125,-0.008544921875,6.103515625e-05,0.99993896484375,0.01404279835422113,-0.04196225509577305,0.006915045551639667
13,0.56005873399954,bno085,0.15625,0.05859375,9.5859375,0.0078125,0.0,0.0,0.00115966796875,-0.008544921875,6.103515625e-05,0.99993896484375,0.021036546888312555,-0.04196279864426049,0.006855282326704731
14,0.6000588089991652,bno085,0.15625,0.05859375,9.625,0.0078125,0.0,0.0,0.00128173828125,-0.008544921875,6.103515625e-05,0.99993896484375,0.03502405000321997,-0.04196388574117468,0.006735755876839912
15,0.6400575699999536,bno085,0.15625,0.05859375,9.625,-0.00390625,0.0,0.0,0.00128173828125,-0.008544921875,6.103515625e-05,0.99993896484375,0.03502405000321997,-0.04196388574117468,0.006735755876839912
16,0.6800590339998962,bno085,0.15625,0.05859375,9.625,0.0,-0.001953125,0.0,0.0013427734375,-0.008544921875,6.103515625e-05,0.99993896484375,0.04201780479242381,-0.04196442928960029,0.006675992651910288
17,0.7200677939999878,bno085,0.1953125,0.05859375,9.62890625,0.00390625,0.005859375,0.0,0.0013427734375,-0.008544921875,6.103515625e-05,0.99993896484375,0.04201780479242381,-0.04196442928960029,0.006675992651910288
18,0.7600567759991463,bno085,0.2734375,0.05859375,9.625,0.0,0.01953125,0.0,0.0013427734375,-0.0084228515625,6.103515625e-05,0.99993896484375,0.04201834497033171,-0.027975031884891984,0.006667453427747186
19,0.8000562959996387,bno085,-0.03515625,0.0234375,9.625,0.0,0.01953125,0.0,0.00140380859375,-0.00799560546875,6.103515625e-05,0.99993896484375,0.049013948150049294,0.020986875458682955,0.006581648469427341
20,0.8400573719991371,bno085,0.15625,0.0234375,9.6640625,0.00390625,-0.0234375,0.0,0.00152587890625,-0.0084228515625,6.103515625e-05,0.99993896484375,0.06299957849677633,-0.027976657528051875,0.00649072509605506
21,0.8800565429992275,bno085,0.38671875,0.05859375,9.62890625,-0.001953125,0.0,0.0,0.00164794921875,-0.00860595703125,0.0,0.99993896484375,0.07693217464118843,-0.04896399908269117,-0.0006143868150438785
22,0.920056862999445,bno085,0.15625,0.05859375,9.625,0.0,0.001953125,0.0,0.00164794921875,-0.00860595703125,0.0,0.99993896484375,0.07693217464118843,-0.04896399908269117,-0.0006143868150438785
23,0.9600579230000221,bno085,0.2734375,0.05859375,9.625,-0.005859375,0.00390625,-0.001953125,0.00164794921875,-0.00848388671875,0.0,0.99993896484375,0.07693178384451142,-0.03497456426696038,-0.0006186561020344748
24,1.0000577429991608,bno085,0.234375,0.0234375,9.625,-0.005859375,0.00390625,-0.001953125,0.001708984375,-0.00848388671875,0.0,0.99993896484375,0.08392554639231348,-0.03497468015261793,-0.0006779932691467629
25,1.0400585249999494,bno085,0.1171875,0.0234375,9.625,-0.00390625,0.013671875,-0.001953125,0.001708984375,-0.0081787109375,6.103515625e-05,0.99993896484375,0.08398175077366629,3.599097601119799e-07,0.006307164982768189
26,1.080058566999469,bno085,0.15625,0.0234375,9.6640625,0.0,0.001953125,0.0,0.001708984375,-0.0081787109375,6.103515625e-05,0.99993896484375,0.08398175077366629,3.599097601119799e-07,0.006307164982768189
27,1.1200586830000248,bno085,0.15625,0.0234375,9.625,0.0,0.0,-0.001953125,0.001708984375,-0.0081787109375,6.103515625e-05,0.99993896484375,0.08398175077366629,3.599097601119799e-07,0.006307164982768189
28,1.1600579659998402,bno085,0.1953125,0.0234375,9.66796875,0.0,0.0078125,-0.001953125,0.001708984375,-0.0081787109375,0.0,0.99993896484375,0.08392455324670509,-1.3406096192129784e-06,-0.0006865319642480899
29,1.2000589329991271,bno085,0.00390625,0.0234375,9.62890625,0.001953125,-0.017578125,0.001953125,0.001708984375,-0.008056640625,0.0,0.99993896484375,0.08392416474134629,0.013987896729021421,-0.000689947417888683
30,1.2400594009995984,bno085,0.1171875,0.0234375,9.625,0.001953125,-0.017578125,0.001953125,0.001708984375,-0.00836181640625,0.0,0.99993896484375,0.08392514538278935,-0.020985301609558964,-0.0006814087580260686
31,1.2800595359994986,bno085,0.34765625,0.05859375,9.62890625,-0.00390625,-0.005859375,0.0,0.001708984375,-0.0086669921875,0.0,0.99993896484375,0.0839261572849853,-0.05595885686484266,-0.0006728700072042154
32,1.3200581329992929,bno085,0.15625,0.0234375,9.625,-0.001953125,0.001953125,0.001953125,0.001708984375,-0.0086669921875,0.0,0.99993896484375,0.0839261572849853,-0.05595885686484266,-0.0006728700072042154
33,1.3600591009999334,bno085,0.08203125,0.0234375,9.66796875,0.005859375,0.001953125,-0.001953125,0.001708984375,-0.008544921875,-6.103515625e-05,0.99993896484375,0.08387111387657292,-0.041971105584020514,-0.007669984337237455
34,1.4000578279992624,bno085,0.15625,0.05859375,9.625,0.005859375,0.001953125,-0.001953125,0.00177001953125,-0.0086669921875,-6.103515625e-05,0.99993896484375,0.09086616447043769,-0.05596026290698509,-0.0077271889608345745
35,1.4400599439995858,bno085,0.234375,0.05859375,9.6640625,0.001953125,0.00390625,0.0,0.00177001953125,-0.00860595703125,-6.103515625e-05,0.99993896484375,0.09086552500162587,-0.04896552184397669,-0.007728469044464456
36,1.4800586709998242,bno085,0.15625,0.0234375,9.6640625,-0.0078125,0.0234375,0.0,0.00164794921875,-0.008056640625,0.0,0.99993896484375,0.07693045216243768,0.013988006779144855,-0.0006335984622420238
37,1.5200581569997667,bno085,0.15625,0.0234375,9.6640625,-0.00390625,0.025390625,0.0,0.00164794921875,-0.008056640625,0.0,0.99993896484375,0.07693045216243768,0.013988006779144855,-0.0006335984622420238
38,1.5600572169996667,bno085,0.15625,-0.015625,9.62890625,0.00390625,0.037109375,0.0,0.001708984375,-0.00750732421875,0.0,1.0,0.08393442827535548,0.07688629475087073,-0.000705214249585779
39,1.6000582219994612,bno085,0.1953125,0.05859375,9.66796875,0.00390625,0.037109375,0.0,0.001708984375,-0.0067138671875,0.0,1.0,0.08393217135887451,0.16781910587641172,-0.0007274249639887943
40,1.6400555419995726,bno085,0.08203125,0.13671875,9.625,-0.0078125,0.025390625,0.0,0.0015869140625,-0.0059814453125,-6.103515625e-05,1.0,0.06986977055316873,0.2517529552849675,-0.007658446066010162
41,1.6800571949997902,bno085,-0.07421875,-0.09375,9.62890625,0.001953125,0.041015625,0.0,0.0015869140625,-0.00506591796875,-6.103515625e-05,1.0,0.06986132424246563,0.3566712021395734,-0.0076969474211543865
42,1.7200589959993522,bno085,0.1171875,0.05859375,9.625,0.001953125,0.021484375,-0.00390625,0.0015869140625,-0.00506591796875,-6.103515625e-05,1.0,0.06986132424246563,0.3566712021395734,-0.0076969474211543865
43,1.760057185999358,bno085,0.1171875,0.05859375,9.6640625,0.001953125,0.01171875,-0.001953125,0.00152587890625,-0.00469970703125,-6.103515625e-05,1.0,0.0628640923889955,0.39863757364530633,-0.00767948270020525
44,1.800057912999364,bno085,0.1171875,0.0234375,9.6640625,0.001953125,0.01171875,-0.001953125,0.00152587890625,-0.00445556640625,-6.103515625e-05,1.0,0.06286190785641722,0.4266152311948708,-0.007691463708349301
45,1.8400571590000254,bno085,0.04296875,0.0234375,9.62890625,0.001953125,0.0234375,0.001953125,0.00152587890625,-0.0040283203125,0.0,1.0,0.06294435114021903,0.47557883893773717,-0.0007180723585093346
46,1.8800572609998198,bno085,0.1171875,0.0234375,9.625,0.0,0.01953125,0.0,0.00152587890625,-0.00347900390625,0.0,1.0,0.06294339208161283,0.5385277068187639,-0.0007449746267820498
47,1.9200571029996354,bno085,0.00390625,0.05859375,9.62890625,0.0,0.03515625,-0.001953125,0.00152587890625,-0.00347900390625,0.0,1.0,0.06294339208161283,0.5385277068187639,-0.0007449746267820498
48,1.960058592999303,bno085,0.04296875,0.0234375,9.62890625,-0.00390625,0.025390625,0.0,0.00152587890625,-0.002685546875,0.0,1.0,0.06294214085266353,0.6294530197272981,-0.0007838341020998972
49,2.000056119999499,bno085,-0.03515625,0.0234375,9.6640625,-0.00390625,0.025390625,0.0,0.00146484375,-0.0020751953125,0.0,1.0,0.05594731838344348,0.6993950571480804,-0.0007992114817060635
50,2.0400589619994207,bno085,-0.03515625,0.0234375,9.6640625,0.001953125,0.017578125,0.001953125,0.00146484375,-0.00164794921875,0.0,1.0,0.05594674927954969,0.7483542406249523,-0.0008231250238017618
51,2.080057580999892,bno085,-0.07421875,-0.015625,9.6640625,0.005859375,0.0078125,0.0,0.00152587890625,-0.0013427734375,0.0,1.0,0.06294038436432807,0.7833249811178089,-0.0008495987778650357
52,2.1200563679994957,bno085,0.04296875,0.13671875,9.6640625,-0.001953125,0.005859375,0.0,0.00152587890625,-0.0013427734375,0.0,1.0,0.06294038436432807,0.7833249811178089,-0.0008495987778650357
53,2.1600570989994594,bno085,-0.03515625,-0.0546875,9.66796875,0.001953125,0.005859375,0.0,0.0015869140625,-0.001220703125,0.0,1.0,0.06993427596627505,0.797313252863244,-0.0008641161262930341
54,2.200056680999296,bno085,0.08203125,0.05859375,9.66796875,0.001953125,0.005859375,0.0,0.00152587890625,-0.0009765625,0.0,1.0,0.06293998408105808,0.8252898222096562,-0.0008675352945328669
55,2.240058800999577,bno085,0.08203125,0.13671875,9.6640625,-0.00390625,0.017578125,0.001953125,0.00152587890625,-0.00054931640625,0.0,1.0,0.06293955974584546,0.8742487291911902,-0.000888461678606952
56,2.2800588649997735,bno085,-0.07421875,-0.09375,9.62890625,0.0,0.005859375,0.0,0.00146484375,-0.00030517578125,0.0,1.0,0.05594522651686849,0.9022252287079895,-0.0008982851509123007
57,2.3200577809993774,bno085,0.00390625,0.0234375,9.66796875,0.001953125,0.015625,-0.001953125,0.00152587890625,0.0001220703125,0.0,1.0,0.06293898576021006,0.9511840753420863,-0.0009213470770101466
58,2.360057511999912,bno085,0.04296875,0.05859375,9.62890625,0.0,0.025390625,-0.001953125,0.00152587890625,0.0001220703125,0.0,1.0,0.06293898576021006,0.9511840753420863,-0.0009213470770101466
59,2.400057075999939,bno085,0.00390625,0.0234375,9.62890625,0.0,0.025390625,-0.001953125,0.00146484375,0.00079345703125,0.0,1.0,0.055944280646938224,1.0281194358719299,-0.0009597843642299298
60,2.4400558259994796,bno085,-0.03515625,0.0234375,9.6640625,-0.00390625,0.02734375,0.0,0.00146484375,0.00152587890625,0.0,1.0,0.05594380008852145,1.1120491136622115,-0.0010007865985009637
61,2.4800586669998665,bno085,-0.1875,0.0234375,9.6640625,0.00390625,0.02734375,-0.001953125,0.00152587890625,0.00213623046875,0.0,1.0,0.06293794457893122,1.1819908199552025,-0.0010200128468555018
62,2.5200669719997677,bno085,-0.1484375,0.0234375,9.66796875,0.0,-0.01171875,-0.001953125,0.00146484375,0.00201416015625,0.0,1.0,0.055943546396256455,1.16800242950662,-0.001028122802344768
63,2.5600572769999417,bno085,0.08203125,0.0234375,9.66796875,0.00390625,0.001953125,0.0,0.00146484375,0.00201416015625,0.0,1.0,0.055943546396256455,1.16800242950662,-0.001028122802344768
64,2.600056174999736,bno085,0.00390625,0.05859375,9.66796875,0.0,0.013671875,-0.001953125,0.00152587890625,0.00213623046875,0.0,1.0,0.06293794457893122,1.1819908199552025,-0.0010200128468555018
65,2.6400570539999535,bno085,0.00390625,0.0234375,9.62890625,0.0,0.013671875,-0.001953125,0.0015869140625,0.00244140625,-6.103515625e-05,1.0,0.06980088542266318,1.2169592567438885,-0.00801358443248351
66,2.680057339999621,bno085,-0.03515625,0.0234375,9.625,0.00390625,0.025390625,0.0,0.0015869140625,0.00299072265625,-6.103515625e-05,1.0,0.06979707995010513,1.279907286955004,-0.008036821162847338
67,2.720056977999775,bno085,-0.07421875,-0.0546875,9.6640625,0.0078125,-0.0078125,0.0,0.00177001953125,0.00286865234375,-6.103515625e-05,1.0,0.09078170791071064,1.2659202010733648,-0.007971453489624853
68,2.760056856999654,bno085,-0.03515625,0.05859375,9.625,0.01171875,-0.0078125,0.0,0.00177001953125,0.00286865234375,-6.103515625e-05,1.0,0.09078170791071064,1.2659202010733648,-0.007971453489624853
69,2.800055846999385,bno085,-0.03515625,0.13671875,9.66796875,0.005859375,-0.00390625,-0.001953125,0.00201416015625,0.00274658203125,-0.0001220703125,1.0,0.11862717878065343,1.2519339941627934,-0.014887795196392346
70,2.840057689999412,bno085,-0.07421875,0.05859375,9.62890625,0.005859375,-0.00390625,-0.001953125,0.0020751953125,0.00274658203125,-0.00030517578125,1.0,0.12522087377393273,1.2519372973944325,-0.03585598067637229
71,2.88005731299927,bno085,-0.07421875,-0.0546875,9.6640625,0.01171875,-0.001953125,-0.013671875,0.0023193359375,0.002685546875,-0.0006103515625,1.0,0.1525352784282219,1.2449640297567004,-0.07076054070097346
72,2.9200584000000163,bno085,0.00390625,0.17578125,9.62890625,0.015625,-0.005859375,0.0,0.002685546875,0.0025634765625,-0.0006103515625,1.0,0.19451106272201876,1.2310013984685924,-0.07065774450818907
73,2.9600585599991973,bno085,-0.03515625,0.13671875,9.66796875,0.001953125,-0.001953125,-0.001953125,0.002685546875,0.0025634765625,-0.0006103515625,1.0,0.19451106272201876,1.2310013984685924,-0.07065774450818907
74,3.0000579249999646,bno085,-0.03515625,0.09765625,9.62890625,0.001953125,-0.00390625,-0.00390625,0.00286865234375,0.00250244140625,-0.000732421875,1.0,0.21523509526441445,1.2240325802791343,-0.08460167602478047
75,3.0400569739995262,bno085,-0.03515625,0.09765625,9.62890625,0.001953125,-0.00390625,-0.00390625,0.0029296875,0.00250244140625,-0.00091552734375,1.0,0.2218339802854362,1.2240576612537282,-0.10557141949444514
76,3.0800580049999553,bno085,-0.03515625,0.09765625,9.66796875,-0.005859375,0.005859375,-0.0234375,0.0028076171875,0.0025634765625,-0.0013427734375,1.0,0.20691231411258929,1.231079036701861,-0.1545711061400545
77,3.1200567209998553,bno085,-0.03515625,0.05859375,9.625,-0.005859375,0.005859375,-0.01171875,0.00262451171875,0.002685546875,-0.001953125,1.0,0.18457844386331254,1.2450824008225767,-0.22457453525241575
78,3.1600598999993963,bno085,-0.03515625,0.05859375,9.625,-0.01171875,0.005859375,-0.001953125,0.00262451171875,0.002685546875,-0.001953125,1.0,0.18457844386331254,1.2450824008225767,-0.22457453525241575
79,3.2000571529997615,bno085,-0.11328125,-0.0546875,9.62890625,0.0,-0.001953125,0.001953125,0.00238037109375,0.0028076171875,-0.0020751953125,1.0,0.15630495316972798,1.2590211375483336,-0.23863654971251672
80,3.2400571469997885,bno085,-0.07421875,-0.0546875,9.6640625,0.0,-0.001953125,0.001953125,0.00244140625,0.0028076171875,-0.0020751953125,1.0,0.16329957932686162,1.2590356915722827,-0.23861693772750753
81,3.280058881999139,bno085,-0.03515625,0.13671875,9.66796875,0.00390625,0.00390625,0.0,0.0025634765625,0.0028076171875,-0.0020751953125,1.0,0.17728884428314587,1.2590647996172757,-0.23857771375683304
82,3.3200584309997794,bno085,-0.11328125,-0.0546875,9.66796875,0.00390625,0.00390625,0.0,0.0025634765625,0.0028076171875,-0.00201416015625,1.0,0.17742285397988444,1.2590609992561146,-0.2315818305088808
83,3.3600570919998063,bno085,-0.07421875,-0.015625,9.6640625,0.01171875,0.0,-0.001953125,0.0025634765625,0.0028076171875,-0.00201416015625,1.0,0.17742285397988444,1.2590609992561146,-0.2315818305088808
84,3.4000577709994104,bno085,-0.03515625,0.09765625,9.66796875,0.005859375,-0.00390625,0.0,0.00274658203125,0.00274658203125,-0.0020751953125,1.0,0.19828707440947685,1.2521142154340617,-0.238523791941759
85,3.4400574499995855,bno085,-0.03515625,0.05859375,9.625,0.005859375,-0.00390625,0.0,0.00299072265625,0.00262451171875,-0.0020751953125,1.0,0.22629418300079016,1.238183942521193,-0.23846030723513553
86,3.480058184999507,bno085,-0.07421875,0.0234375,9.66796875,0.01171875,-0.00390625,0.0,0.00323486328125,0.00244140625,-0.0020751953125,1.0,0.25431542735587287,1.217259442788897,-0.23841201694323996
87,3.520060807999471,bno085,0.00390625,0.13671875,9.625,-0.009765625,0.005859375,-0.005859375,0.00311279296875,0.00250244140625,-0.002197265625,1.0,0.2400482047641386,1.2242398176698843,-0.2524302311401559
88,3.5600591719994554,bno085,-0.07421875,-0.0546875,9.6640625,-0.005859375,0.00390625,-0.009765625,0.00311279296875,0.00250244140625,-0.002197265625,1.0,0.2400482047641386,1.2242398176698843,-0.2524302311401559
89,3.600059591999525,bno085,-0.07421875,-0.015625,9.6640625,0.00390625,-0.001953125,-0.001953125,0.00299072265625,0.0025634765625,-0.00244140625,1.0,0.2255146766418156,1.2312301461015256,-0.28044191060346046
90,3.640058178999425,bno085,0.04296875,0.25,9.66796875,0.00390625,-0.001953125,-0.001953125,0.0030517578125,0.00250244140625,-0.0025634765625,1.0,0.2322623992680489,1.2242672475449865,-0.29442262028624866
91,3.680058690999431,bno085,-0.07421875,-0.015625,9.6640625,-0.015625,0.01171875,-0.009765625,0.00262451171875,0.002685546875,-0.00274658203125,1.0,0.18284753551063504,1.2451364474099889,-0.31552079855924503
92,3.720057703999373,bno085,-0.07421875,-0.015625,9.625,-0.01171875,0.0078125,0.001953125,0.0023193359375,0.00286865234375,-0.0028076171875,1.0,0.14768283839814803,1.2660248505969038,-0.3226053289275655
93,3.760057456999675,bno085,-0.11328125,-0.015625,9.66796875,-0.0078125,0.001953125,-0.001953125,0.0023193359375,0.00286865234375,-0.0028076171875,1.0,0.14768283839814803,1.2660248505969038,-0.3226053289275655
94,3.8000579509998715,bno085,-0.07421875,0.0234375,9.62890625,0.005859375,-0.001953125,0.001953125,0.00225830078125,0.0028076171875,-0.0028076171875,1.0,0.14070772746897217,1.2590109283963362,-0.32262662544493625
95,3.8400582790000044,bno085,-0.03515625,0.13671875,9.62890625,0.005859375,-0.001953125,0.001953125,0.00238037109375,0.00274658203125,-0.0028076171875,1.0,0.15471646471797562,1.2520560417256141,-0.32258955072993184
96,3.8800589429993124,bno085,-0.03515625,0.13671875,9.66796875,-0.00390625,0.0,0.0,0.00225830078125,0.00274658203125,-0.00274658203125,1.0,0.1408608106410689,1.2520151910050468,-0.3156319891714323
97,3.920057922999149,bno085,0.00390625,0.13671875,9.625,-0.015625,0.0078125,0.001953125,0.001953125,0.00286865234375,-0.00274658203125,1.0,0.10584953253505512,1.2659074186020371,-0.3157295548048363
98,3.9600575679996837,bno085,-0.07421875,-0.015625,9.6640625,-0.005859375,0.00390625,0.0,0.001953125,0.00286865234375,-0.00274658203125,1.0,0.10584953253505512,1.2659074186020371,-0.3157295548048363
99,4.000058343999626,bno085,-0.03515625,0.05859375,9.625,-0.01171875,0.001953125,0.001953125,0.00177001953125,0.00299072265625,-0.002685546875,1.0,0.08496262187690573,1.2798400573624584,-0.30879794092899315
100,4.0400574709992725,bno085,-0.11328125,-0.1328125,9.6640625,-0.01171875,0.001953125,0.001953125,0.00164794921875,0.00299072265625,-0.002685546875,1.0,0.07097337939793177,1.2798024053548418,-0.3088397088889902
101,4.080059857999913,bno085,-0.07421875,0.0234375,9.66796875,0.00390625,0.0,-0.001953125,0.00164794921875,0.00299072265625,-0.002685546875,1.0,0.07097337939793177,1.2798024053548418,-0.3088397088889902
102,4.1200576329993055,bno085,-0.07421875,0.0234375,9.66796875,0.001953125,0.0,0.0,0.00164794921875,0.00299072265625,-0.002685546875,1.0,0.07097337939793177,1.2798024053548418,-0.3088397088889902
103,4.160059500999523,bno085,-0.07421875,-0.015625,9.625,-0.001953125,0.0,-0.001953125,0.00164794921875,0.00299072265625,-0.002685546875,1.0,0.07097337939793177,1.2798024053548418,-0.3088397088889902
104,4.200058683999487,bno085,-0.07421875,-0.015625,9.6640625,0.0078125,0.0,0.0,0.0015869140625,0.00299072265625,-0.002685546875,1.0,0.06397876245266006,1.2797835793500578,-0.30886059286852924
105,4.240059033999387,bno085,-0.03515625,0.17578125,9.6640625,0.0078125,0.0,0.0,0.00164794921875,0.00299072265625,-0.002685546875,1.0,0.07097337939793177,1.2798024053548418,-0.3088397088889902
106,4.280059160999372,bno085,-0.07421875,0.0234375,9.66796875,-0.009765625,0.00390625,0.0,0.00146484375,0.0030517578125,-0.002685546875,1.0,0.04997072049033147,1.2867401749445977,-0.308906620036281
107,4.320058176999737,bno085,-0.07421875,-0.0546875,9.6640625,0.00390625,0.001953125,0.0,0.00152587890625,0.00311279296875,-0.00274658203125,1.0,0.05681041337335575,1.2937496443538006,-0.3158851533875597
108,4.36005956399913,bno085,-0.03515625,0.09765625,9.66796875,0.00390625,0.0,0.0,0.00152587890625,0.00311279296875,-0.00274658203125,1.0,0.05681041337335575,1.2937496443538006,-0.3158851533875597
109,4.400057690999347,bno085,-0.03515625,0.09765625,9.62890625,-0.005859375,0.001953125,0.001953125,0.00152587890625,0.0030517578125,-0.00274658203125,1.0,0.05682964393549042,1.286755390664799,-0.31588129737692183
110,4.440057447999607,bno085,-0.07421875,-0.015625,9.6640625,-0.005859375,0.001953125,0.001953125,0.00146484375,0.00311279296875,-0.002685546875,1.0,0.04995190499280401,1.2937344277586358,-0.3089108838591919
111,4.480056741999761,bno085,-0.07421875,-0.015625,9.625,0.001953125,-0.001953125,0.0,0.00146484375,0.0030517578125,-0.002685546875,1.0,0.04997072049033147,1.2867401749445977,-0.308906620036281
112,4.520060387999365,bno085,-0.03515625,0.09765625,9.62890625,-0.0078125,-0.001953125,0.0,0.00140380859375,0.00311279296875,-0.002685546875,1.0,0.04295727151757982,1.2937155999817684,-0.3089326219294996
113,4.560058144999857,bno085,-0.07421875,-0.0546875,9.6640625,0.001953125,-0.00390625,0.001953125,0.00140380859375,0.00311279296875,-0.002685546875,1.0,0.04295727151757982,1.2937155999817684,-0.3089326219294996
114,4.600058030999207,bno085,-0.03515625,0.0234375,9.6640625,0.00390625,0.001953125,0.0,0.00146484375,0.0030517578125,-0.00262451171875,1.0,0.05010642243973904,1.286744199083368,-0.3019106371639028
115,4.640058528999361,bno085,-0.07421875,0.05859375,9.62890625,0.00390625,0.001953125,0.0,0.00146484375,0.0030517578125,-0.002685546875,1.0,0.04997072049033147,1.2867401749445977,-0.308906620036281
116,4.680058544999156,bno085,-0.07421875,-0.0546875,9.6640625,0.0,0.0,0.0,0.0015869140625,0.00299072265625,-0.002685546875,1.0,0.06397876245266006,1.2797835793500578,-0.30886059286852924
117,4.720059116999437,bno085,-0.07421875,-0.09375,9.66796875,0.013671875,0.001953125,-0.00390625,0.00189208984375,0.00299072265625,-0.00274658203125,1.0,0.09881660340842831,1.279876659818105,-0.3157521477446378
118,4.760057632999633,bno085,-0.1484375,-0.20703125,9.66796875,0.033203125,-0.013671875,0.0,0.00189208984375,0.00299072265625,-0.00274658203125,1.0,0.09881660340842831,1.279876659818105,-0.3157521477446378
119,4.800056648999998,bno085,-0.03515625,0.09765625,9.62890625,0.017578125,-0.009765625,0.0,0.00262451171875,0.002685546875,-0.00274658203125,1.0,0.18284753551063504,1.2451364474099889,-0.31552079855924503
120,4.840056851999179,bno085,0.04296875,0.3671875,9.62890625,0.017578125,-0.009765625,0.0,0.00311279296875,0.00250244140625,-0.00274658203125,1.0,0.23886144926739297,1.2243077215067095,-0.3153926686849186
121,4.8800583529991854,bno085,-0.07421875,0.0234375,9.66796875,0.001953125,-0.001953125,0.0,0.0030517578125,0.00250244140625,-0.00274658203125,1.0,0.23186682913795853,1.2242884756657266,-0.3154101354860146
122,4.9200573729995085,bno085,-0.11328125,-0.0546875,9.66796875,0.0,0.0,0.0,0.00299072265625,0.00244140625,-0.0028076171875,1.0,0.22475975717081162,1.2172816234867094,-0.32242987051287536
123,4.960057503999451,bno085,0.00390625,0.17578125,9.66796875,-0.005859375,0.00390625,0.0,0.00299072265625,0.00244140625,-0.0028076171875,1.0,0.22475975717081162,1.2172816234867094,-0.32242987051287536
124,5.000055968999732,bno085,-0.11328125,-0.1328125,9.6640625,0.0078125,-0.00390625,0.0,0.0030517578125,0.00244140625,-0.0028076171875,1.0,0.23175436085467788,1.217301295370704,-0.32241283165651274
125,5.04005669199978,bno085,-0.03515625,0.09765625,9.62890625,0.0078125,-0.00390625,0.0,0.0032958984375,0.00238037109375,-0.0028076171875,1.0,0.25975217287842667,1.2103857551322588,-0.3223532375215847
126,5.08005810099985,bno085,-0.07421875,-0.0546875,9.6640625,-0.00390625,0.001953125,0.001953125,0.00335693359375,0.00225830078125,-0.0028076171875,1.0,0.26678547005053066,1.1964169809411676,-0.32235461653696246
127,5.120057213999644,bno085,0.00390625,0.0234375,9.66796875,-0.005859375,0.00390625,0.0,0.00341796875,0.00225830078125,-0.0028076171875,1.0,0.27378007362286183,1.1964366501662098,-0.3223388587276795
128,5.160057770999629,bno085,-0.03515625,0.13671875,9.62890625,0.0,0.0,-0.001953125,0.00341796875,0.00225830078125,-0.0028076171875,1.0,0.27378007362286183,1.1964366501662098,-0.3223388587276795
129,5.200056308999592,bno085,0.08203125,0.13671875,9.625,0.015625,0.0,-0.05859375,0.00347900390625,0.00225830078125,-0.0028076171875,1.0,0.280774683042745,1.1964563193898372,-0.3223231009181709
130,5.240057069999239,bno085,-0.2265625,0.40625,9.625,0.015625,0.0,-0.05859375,0.0035400390625,0.0023193359375,-0.00408935546875,1.0,0.2850083705090301,1.203686717345019,-0.46921016022813955
131,5.280057256999498,bno085,0.04296875,-0.09375,9.66796875,-0.00390625,0.001953125,-0.06640625,0.00347900390625,0.0023193359375,-0.00592041015625,1.0,0.2740984199498769,1.2039438821787691,-0.6791077637671563
132,5.320059701999526,bno085,-0.07421875,0.44140625,9.625,0.017578125,0.001953125,-0.033203125,0.003662109375,0.00238037109375,-0.00677490234375,0.99993896484375,0.2931837823308146,1.211192892420851,-0.7769496438959289
133,5.360057870999299,bno085,0.00390625,-0.4375,9.66796875,0.013671875,0.0,0.0,0.003662109375,0.00238037109375,-0.00677490234375,0.99993896484375,0.2931837823308146,1.211192892420851,-0.7769496438959289
134,5.400057371999537,bno085,-0.03515625,0.3671875,9.5859375,-0.01171875,0.001953125,0.0,0.0037841796875,0.00238037109375,-0.00701904296875,0.99993896484375,0.3066487271964868,1.2113326513034546,-0.8049003758900206
135,5.440057428999353,bno085,-0.03515625,-0.36328125,9.6953125,-0.01171875,0.001953125,0.0,0.00372314453125,0.00244140625,-0.00701904296875,0.99993896484375,0.29960574518389543,1.2182773315198356,-0.8049066170369822
136,5.4800573749998875,bno085,-0.03515625,-0.1328125,9.6953125,-0.005859375,0.0,0.0,0.00372314453125,0.00244140625,-0.00701904296875,0.99993896484375,0.29960574518389543,1.2182773315198356,-0.8049066170369822
137,5.5200602099994285,bno085,-0.07421875,-0.015625,9.6640625,0.025390625,0.001953125,0.0,0.00408935546875,0.00244140625,-0.0069580078125,0.99993896484375,0.34170262286675096,1.2185587675706597,-0.797808796349417
138,5.560056877999159,bno085,-0.03515625,-0.24609375,9.6640625,0.048828125,0.001953125,0.0,0.00408935546875,0.00244140625,-0.0069580078125,0.99993896484375,0.34170262286675096,1.2185587675706597,-0.797808796349417
139,5.600058063999313,bno085,-0.03515625,-0.4375,9.6953125,0.142578125,0.00390625,0.005859375,0.00518798828125,0.00250244140625,-0.0069580078125,0.99993896484375,0.46755290173369524,1.2264292558744219,-0.7974827529315495
140,5.6400581399993825,bno085,-0.03515625,-0.16796875,9.6640625,0.142578125,0.00390625,0.005859375,0.008544921875,0.002685546875,-0.00689697265625,0.99993896484375,0.8522540825570356,1.2500451346825217,-0.7893976455669616
141,5.680057881999346,bno085,-0.2265625,0.09765625,9.66796875,0.21484375,0.005859375,0.041015625,0.013427734375,0.0028076171875,-0.00616455078125,0.9998779296875,1.413340548512351,1.2669307280732673,-0.7037495064259544
142,5.720057753999754,bno085,-0.11328125,3.890625,9.1640625,0.013671875,-0.0078125,0.041015625,0.014404296875,0.0025634765625,-0.00531005859375,0.9998779296875,1.5272964483708635,1.2384460532676775,-0.605839902221738
143,5.760057254999992,bno085,-0.1875,2.78125,9.28515625,-0.4375,-0.001953125,0.001953125,0.014404296875,0.0025634765625,-0.00531005859375,0.9998779296875,1.5272964483708635,1.2384460532676775,-0.605839902221738
144,5.800057552999533,bno085,-0.265625,-5.265625,11.16015625,-0.0078125,-0.0703125,-0.005859375,0.004638671875,0.00244140625,-0.00518798828125,1.0,0.4084918682995998,1.2185096459286608,-0.5948129422455991
145,5.840059073999328,bno085,0.921875,-3.80859375,9.01171875,-0.0078125,-0.0703125,-0.005859375,0.00079345703125,0.00152587890625,-0.0064697265625,1.0,-0.03424440763163435,1.1111105124266594,-0.742654137517316
146,5.88005900600001,bno085,0.34765625,-0.8203125,9.7734375,-0.0390625,-0.015625,0.029296875,0.0029296875,0.0018310546875,-0.005615234375,1.0,0.21211214221717262,1.1475897263619486,-0.6443139827427511
147,5.9200589369993395,bno085,-0.11328125,0.25,9.625,0.005859375,-0.021484375,0.005859375,0.0029296875,0.0020751953125,-0.0057373046875,1.0,0.21169822742954172,1.175577568506941,-0.6582851584423097
148,5.960055867999472,bno085,-0.07421875,-0.1328125,9.66796875,-0.00390625,-0.009765625,0.00390625,0.0029296875,0.0020751953125,-0.0057373046875,1.0,0.21169822742954172,1.175577568506941,-0.6582851584423097
149,6.0000561139995625,bno085,0.08203125,0.13671875,9.625,-0.001953125,0.0234375,0.00390625,0.00274658203125,0.0020751953125,-0.0057373046875,1.0,0.19071465853972003,1.175457092498558,-0.6583284493301496
150,6.040058396999484,bno085,-0.07421875,0.09765625,9.625,-0.001953125,0.0234375,0.00390625,0.002685546875,0.00238037109375,-0.005615234375,1.0,0.1837821274269229,1.2103803258461685,-0.6443333207468004
151,6.080059994999829,bno085,-0.03515625,0.05859375,9.6640625,-0.00390625,0.0,0.00390625,0.0025634765625,0.00238037109375,-0.00555419921875,1.0,0.16992392837623865,1.210298716693448,-0.6373703221272915
152,6.1200567589994535,bno085,-0.07421875,0.05859375,9.62890625,0.00390625,-0.00390625,0.001953125,0.0025634765625,0.0023193359375,-0.0054931640625,1.0,0.17009313135735413,1.2033014991337272,-0.6303768487858132
153,6.160058226999354,bno085,-0.03515625,0.09765625,9.62890625,-0.00390625,0.00390625,-0.001953125,0.00250244140625,0.0023193359375,-0.00555419921875,1.0,0.16296809199937876,1.2032656215972846,-0.6373890957548185
154,6.20005638099974,bno085,-0.37890625,0.05859375,9.625,-0.009765625,-0.060546875,-0.001953125,0.00250244140625,0.0023193359375,-0.00555419921875,1.0,0.16296809199937876,1.2032656215972846,-0.6373890957548185
155,6.240056848999302,bno085,-0.609375,-0.015625,9.6640625,-0.009765625,-0.060546875,-0.001953125,0.00238037109375,0.00103759765625,-0.005615234375,1.0,0.14967149560650567,1.0563118988133633,-0.6444477046225046
156,6.280057465000027,bno085,0.08203125,0.21484375,9.625,0.01171875,-0.142578125,-0.0078125,0.00250244140625,-0.00250244140625,-0.0057373046875,1.0,0.16574371210767222,0.6507344429967873,-0.6585783540689275
157,6.320059155999843,bno085,0.08203125,-0.015625,9.625,0.0,-0.146484375,0.005859375,0.00244140625,-0.006103515625,-0.00567626953125,0.99993896484375,0.1611796849807624,0.23806493186558011,-0.651691212413878
158,6.360057530999256,bno085,0.08203125,0.05859375,9.62890625,0.0,-0.158203125,0.0,0.00244140625,-0.006103515625,-0.00567626953125,0.99993896484375,0.1611796849807624,0.23806493186558011,-0.651691212413878
159,6.400056535999283,bno085,0.38671875,-0.09375,9.66796875,0.00390625,-0.111328125,0.00390625,0.00250244140625,-0.00994873046875,-0.00567626953125,0.99993896484375,0.17069172863587675,-0.20255689534340032,-0.6519744736686728
160,6.440058207999755,bno085,0.42578125,-0.015625,9.66796875,0.0,-0.056640625,0.001953125,0.002685546875,-0.012939453125,-0.005615234375,0.9998779296875,0.19364711151632344,-0.5451335490053804,-0.6454263426660622
161,6.48005737999938,bno085,0.5,0.0234375,9.6640625,0.0,-0.056640625,0.001953125,0.002685546875,-0.0145263671875,-0.005615234375,0.9998779296875,0.19468298509052098,-0.7270275603316212,-0.6455822730604142
162,6.520061625999915,bno085,0.46484375,0.09765625,9.6640625,-0.00390625,0.0078125,0.001953125,0.00262451171875,-0.0145263671875,-0.00555419921875,0.9998779296875,0.18770098747122188,-0.7270700519059315,-0.6384863058540315
163,6.560058575999392,bno085,0.234375,0.05859375,9.6640625,-0.00390625,0.009765625,0.0,0.00250244140625,-0.0142822265625,-0.00555419921875,0.9998779296875,0.17355412998989383,-0.6991626147954962,-0.6382636929073021
164,6.600059136999334,bno085,0.234375,-0.015625,9.66796875,0.0078125,0.0,0.00390625,0.00250244140625,-0.0142822265625,-0.00555419921875,0.9998779296875,0.17355412998989383,-0.6991626147954962,-0.6382636929073021
165,6.640056956999615,bno085,0.234375,0.09765625,9.62890625,0.0078125,0.0,0.00390625,0.0025634765625,-0.0142822265625,-0.00555419921875,0.9998779296875,0.18054869678407331,-0.6991239654870212,-0.6383636684021821
166,6.680056831999536,bno085,0.34765625,0.21484375,9.625,-0.00390625,-0.00390625,0.0,0.00250244140625,-0.01434326171875,-0.00555419921875,0.9998779296875,0.1735935206276571,-0.7061587603679883,-0.638268490038937
167,6.720056651999585,bno085,0.1953125,-0.16796875,9.66796875,-0.009765625,0.013671875,0.0,0.0023193359375,-0.0140380859375,-0.00555419921875,0.9998779296875,0.1524131247827986,-0.6712942323788252,-0.6379497974067597
168,6.7600571389994,bno085,0.234375,0.2890625,9.625,-0.0078125,-0.00390625,-0.001953125,0.0023193359375,-0.0140380859375,-0.00555419921875,0.9998779296875,0.1524131247827986,-0.6712942323788252,-0.6379497974067597
169,6.800055959000019,bno085,0.38671875,0.0234375,9.66796875,-0.0078125,0.015625,0.0,0.00213623046875,-0.0140380859375,-0.00555419921875,0.9998779296875,0.13142968954897613,-0.6714101895775163,-0.6376549953136526
170,6.840057149999666,bno085,0.1953125,0.13671875,9.625,-0.001953125,-0.00390625,0.0,0.001953125,-0.0137939453125,-0.00555419921875,0.9998779296875,0.11028939751803286,-0.643542218389047,-0.6373566248036007
171,6.880057047999799,bno085,0.2734375,0.17578125,9.6640625,-0.001953125,-0.00390625,0.0,0.0020751953125,-0.01385498046875,-0.00555419921875,0.9998779296875,0.12431744836984375,-0.6504608554543976,-0.6375514752637226
172,6.920056390999889,bno085,0.38671875,0.05859375,9.66796875,-0.009765625,0.0078125,0.001953125,0.00201416015625,-0.013916015625,-0.0054931640625,0.9998779296875,0.11737918697393691,-0.6574946449177604,-0.6304616418268296
173,6.960056732999874,bno085,0.2734375,0.17578125,9.625,-0.0234375,0.0078125,-0.001953125,0.00201416015625,-0.013916015625,-0.0054931640625,0.9998779296875,0.11737918697393691,-0.6574946449177604,-0.6304616418268296
174,7.000056519999816,bno085,0.234375,-0.015625,9.62890625,0.005859375,0.0078125,0.0,0.00164794921875,-0.01373291015625,-0.0054931640625,0.9998779296875,0.07529651973506596,-0.6367361794652837,-0.6298809676517722
175,7.04005737999978,bno085,0.1953125,0.05859375,9.62890625,0.005859375,0.0078125,0.0,0.00177001953125,-0.013671875,-0.0054931640625,0.9998779296875,0.08924651446834576,-0.6296638234268802,-0.6300736620381263
176,7.0800592779996805,bno085,0.30859375,0.48046875,9.62890625,-0.00390625,-0.009765625,0.00390625,0.00177001953125,-0.013916015625,-0.0054931640625,0.9998779296875,0.08940148267588283,-0.6576475532681973,-0.6300719919742109
177,7.120057286999327,bno085,0.1953125,-0.015625,9.6640625,0.0,0.02734375,-0.001953125,0.00152587890625,-0.01348876953125,-0.0054931640625,0.9998779296875,0.061153105031776914,-0.6088292016389408,-0.6296973195654673
178,7.16005716699965,bno085,0.1953125,-0.0546875,9.625,-0.005859375,0.015625,0.0078125,0.00152587890625,-0.01348876953125,-0.0054931640625,0.9998779296875,0.061153105031776914,-0.6088292016389408,-0.6296973195654673
179,7.2000578979996135,bno085,0.234375,0.21484375,9.66796875,-0.001953125,0.01171875,-0.00390625,0.00152587890625,-0.0130615234375,-0.00543212890625,0.9998779296875,0.060905330165076654,-0.5598548329571481,-0.6227187375133207
180,7.240058480999323,bno085,0.1953125,0.05859375,9.62890625,-0.001953125,0.01171875,-0.00390625,0.00146484375,-0.0128173828125,-0.00543212890625,0.9998779296875,0.05375826803541555,-0.5319102078309756,-0.6226380711864336
181,7.280057656999816,bno085,0.234375,-0.0546875,9.66796875,0.0078125,0.0,-0.00390625,0.00152587890625,-0.01275634765625,-0.00543212890625,0.9998779296875,0.06071415853909284,-0.5248768385842113,-0.6227300847162356
182,7.32005801699961,bno085,0.2734375,0.05859375,9.625,-0.00390625,-0.00390625,0.0,0.00152587890625,-0.01275634765625,-0.00543212890625,0.9998779296875,0.06071415853909284,-0.5248768385842113,-0.6227300847162356
183,7.3600577489996795,bno085,0.234375,0.09765625,9.66796875,-0.00390625,0.0,0.0,0.00152587890625,-0.01275634765625,-0.00543212890625,0.9998779296875,0.06071415853909284,-0.5248768385842113,-0.6227300847162356
184,7.40005662799922,bno085,0.234375,-0.015625,9.62890625,0.001953125,-0.001953125,-0.001953125,0.00140380859375,-0.01275634765625,-0.00543212890625,0.9998779296875,0.04672594494903009,-0.5249524688564824,-0.6225514875338662
185,7.4400573039993105,bno085,0.2734375,0.0234375,9.625,0.001953125,-0.001953125,-0.001953125,0.00140380859375,-0.0126953125,-0.00543212890625,0.9998779296875,0.04668774310390164,-0.5179569373166367,-0.6225546387077378
186,7.480056571999739,bno085,0.234375,0.05859375,9.6640625,-0.001953125,0.001953125,-0.001953125,0.0013427734375,-0.0126953125,-0.00543212890625,0.9998779296875,0.0396936545310572,-0.5179947532426203,-0.6224657670923263
187,7.520058969999809,bno085,0.234375,0.0234375,9.6640625,0.0,0.0,0.001953125,0.00128173828125,-0.01263427734375,-0.00543212890625,0.9998779296875,0.03266139636459005,-0.5110370608871866,-0.6223809098551633
188,7.560057996999603,bno085,0.234375,0.0234375,9.625,0.00390625,0.001953125,0.0,0.00128173828125,-0.01263427734375,-0.00543212890625,0.9998779296875,0.03266139636459005,-0.5110370608871866,-0.6223809098551633
189,7.600056931999461,bno085,0.234375,0.0234375,9.625,0.0,-0.001953125,-0.001953125,0.0013427734375,-0.0125732421875,-0.00543212890625,0.9998779296875,0.03961728237075171,-0.5040037566706307,-0.6224729511536435
190,7.6400572929997,bno085,0.234375,0.0234375,9.6640625,0.0,-0.001953125,-0.001953125,0.0013427734375,-0.0125732421875,-0.00543212890625,0.9998779296875,0.03961728237075171,-0.5040037566706307,-0.6224729511536435
191,7.680057116999706,bno085,0.234375,0.05859375,9.6640625,0.001953125,0.0,0.0,0.00140380859375,-0.0125732421875,-0.00543212890625,0.9998779296875,0.0466113417517567,-0.5039659391610359,-0.6225609688210145
192,7.720057366999754,bno085,0.234375,0.0234375,9.625,0.001953125,0.0,0.0,0.00146484375,-0.01251220703125,-0.00543212890625,0.9998779296875,0.05356718946357604,-0.49693265403432213,-0.6226517384563313
193,7.7600561350000135,bno085,0.2734375,0.0234375,9.625,-0.001953125,0.001953125,0.0,0.00146484375,-0.01251220703125,-0.00543212890625,0.9998779296875,0.05356718946357604,-0.49693265403432213,-0.6226517384563313
194,7.800056439999935,bno085,0.234375,0.0234375,9.625,0.001953125,-0.001953125,0.0,0.00140380859375,-0.01251220703125,-0.00543212890625,0.9998779296875,0.04657314224132012,-0.49697047233718383,-0.6225641477606422
195,7.840056560999983,bno085,0.2734375,0.0234375,9.625,0.001953125,-0.001953125,0.0,0.00140380859375,-0.01251220703125,-0.0054931640625,0.9998779296875,0.04654640568975212,-0.4969755630753829,-0.6295580934833871
196,7.880057869999291,bno085,0.234375,0.05859375,9.6640625,-0.00390625,0.00390625,-0.001953125,0.00140380859375,-0.012451171875,-0.0054931640625,0.9998779296875,0.04650778013715851,-0.48998011761255167,-0.6295612743264879
197,7.92005767899991,bno085,0.1953125,0.05859375,9.62890625,0.001953125,-0.005859375,0.001953125,0.00140380859375,-0.01251220703125,-0.0054931640625,0.9998779296875,0.04654640568975212,-0.4969755630753829,-0.6295580934833871
198,7.960056969999641,bno085,0.2734375,0.0234375,9.6640625,0.0,0.001953125,0.0,0.00140380859375,-0.01251220703125,-0.0054931640625,0.9998779296875,0.04654640568975212,-0.4969755630753829,-0.6295580934833871
199,8.000056833999224,bno085,0.1953125,0.0234375,9.66796875,0.001953125,-0.005859375,0.0,0.00140380859375,-0.012451171875,-0.0054931640625,0.9998779296875,0.04650778013715851,-0.48998011761255167,-0.6295612743264879
200,8.040056568999717,bno085,0.2734375,0.05859375,9.6640625,0.001953125,-0.005859375,0.0,0.00140380859375,-0.0125732421875,-0.0054931640625,0.9998779296875,0.046585032017662474,-0.5039710299021539,-0.6295549219999795
201,8.080057599999236,bno085,0.1953125,0.05859375,9.62890625,-0.00390625,0.00390625,0.001953125,0.0013427734375,-0.0125732421875,-0.0054931640625,0.9998779296875,0.03959097263755224,-0.5040092742573064,-0.629466903463844
202,8.120057575999454,bno085,0.234375,0.0234375,9.625,-0.00390625,-0.00390625,0.001953125,0.00128173828125,-0.01263427734375,-0.0054931640625,0.9998779296875,0.03263551344884598,-0.5110430053233078,-0.6293748688581617
203,8.160057310999946,bno085,0.2734375,0.05859375,9.6640625,0.0,0.001953125,0.0,0.00128173828125,-0.01263427734375,-0.0054931640625,0.9998779296875,0.03263551344884598,-0.5110430053233078,-0.6293748688581617
204,8.200058730999444,bno085,0.2734375,0.05859375,9.6640625,0.001953125,0.001953125,-0.001953125,0.0013427734375,-0.01263427734375,-0.00543212890625,0.9998779296875,0.039655468113906835,-0.5109992441703372,-0.6224693544964829
205,8.240059428999302,bno085,0.234375,0.05859375,9.625,0.001953125,0.001953125,-0.001953125,0.0013427734375,-0.01263427734375,-0.0054931640625,0.9998779296875,0.03962958519864666,-0.5110047617604373,-0.6294633143676897
206,8.280059570999583,bno085,0.2734375,0.0234375,9.6640625,0.0,-0.001953125,0.0,0.0013427734375,-0.0126953125,-0.0054931640625,0.9998779296875,0.03966819843428069,-0.518000270836193,-0.6294597346287579
207,8.320060379999632,bno085,0.234375,0.0234375,9.625,-0.001953125,-0.001953125,0.001953125,0.00140380859375,-0.0126953125,-0.0054931640625,0.9998779296875,0.0466622870063495,-0.5179620280637189,-0.6295486071117977
