sample,time_s,sensor,accel_x_mps2,accel_y_mps2,accel_z_mps2,gyro_x_radps,gyro_y_radps,gyro_z_radps,quat_i,quat_j,quat_k,quat_real,roll_deg,pitch_deg,yaw_deg
0,0.04005625699937809,bno085,0.42578125,-0.5546875,9.69921875,0.0078125,0.078125,0.0078125,-0.005126953125,0.0291748046875,-0.0001220703125,0.99957275390625,1.890347254603058e-08,3.3219491503484703e-09,7.939458488655386e-07
1,0.08005544199932046,bno085,-0.953125,0.86328125,9.62890625,-0.03125,0.02734375,0.0,-0.005126953125,0.03070068359375,-6.103515625e-05,0.99951171875,-0.00023120892387771863,0.17484127053093446,0.007886980226503262
2,0.12005435299943201,bno085,0.234375,-0.4765625,9.6640625,-0.013671875,0.037109375,0.00390625,-0.005126953125,0.03070068359375,-6.103515625e-05,0.99951171875,-0.00023120892387771863,0.17484127053093446,0.007886980226503262
3,0.16005585599941696,bno085,-0.609375,0.05859375,9.62890625,0.001953125,-0.044921875,-0.001953125,-0.00506591796875,0.03192138671875,-0.0001220703125,0.99945068359375,0.006930903100438613,0.31474105228913457,0.0018354689193277038
4,0.2000562479997825,bno085,-0.11328125,0.05859375,9.6640625,0.001953125,-0.044921875,-0.001953125,-0.00506591796875,0.03094482421875,-0.0001220703125,0.99951171875,0.006942223259947134,0.20289171455263955,0.001256155040271793
5,0.24005612200016913,bno085,-0.3046875,0.05859375,9.62890625,0.0,-0.0234375,0.00390625,-0.00506591796875,0.03021240234375,-0.0001220703125,0.99951171875,0.006977221614420064,0.11884648824928944,0.0008206093845867083
6,0.28005462500004796,bno085,0.04296875,0.21484375,9.6640625,-0.01953125,-0.01953125,-0.001953125,-0.00531005859375,0.029541015625,-0.00018310546875,0.99957275390625,-0.02079112154959048,0.04205750858285048,-0.007394949819405404
7,0.32005457200011733,bno085,-0.2265625,-0.20703125,9.625,-0.01171875,-0.021484375,0.0,-0.00531005859375,0.029541015625,-0.00018310546875,0.99957275390625,-0.02079112154959048,0.04205750858285048,-0.007394949819405404
8,0.360055445999933,bno085,-0.49609375,-0.0546875,9.62890625,0.00390625,-0.0390625,0.001953125,-0.00531005859375,0.02960205078125,-0.00018310546875,0.99957275390625,-0.020794568017384357,0.04906087340983132,-0.0073603593661974095
9,0.40005642999949487,bno085,0.04296875,0.09765625,9.6640625,0.00390625,-0.0390625,0.001953125,-0.00531005859375,0.02886962890625,-0.00018310546875,0.99957275390625,-0.020753230819432353,-0.03497620564692566,-0.007775448919354861
10,0.44005537799966987,bno085,0.15625,0.05859375,9.6640625,-0.001953125,-0.03515625,0.001953125,-0.0052490234375,0.02789306640625,-0.00018310546875,0.99957275390625,-0.013707168186989152,-0.1470153763510583,-0.00813382793954925
11,0.4800545849993796,bno085,0.04296875,-0.015625,9.625,-0.005859375,0.02734375,0.0,-0.00531005859375,0.02825927734375,-0.00018310546875,0.99957275390625,-0.020718817062115563,-0.1050016862729888,-0.008121364926728122
12,0.5200538469998719,bno085,-0.265625,0.0234375,9.66796875,-0.001953125,-0.0078125,-0.001953125,-0.00531005859375,0.02825927734375,-0.00018310546875,0.99957275390625,-0.020718817062115563,-0.1050016862729888,-0.008121364926728122
13,0.5600548309994338,bno085,-0.03515625,0.0234375,9.625,0.005859375,-0.015625,0.0,-0.00531005859375,0.0279541015625,-0.00018310546875,0.99957275390625,-0.020701621691082625,-0.14001261420607175,-0.008294326194519051
14,0.6000563349998629,bno085,-0.11328125,0.05859375,9.625,0.005859375,-0.015625,0.0,-0.00518798828125,0.02734375,-0.000244140625,0.9996337890625,-0.006504927684471005,-0.20980574419987186,-0.015248677252043177
15,0.6400548009996783,bno085,-0.2265625,0.05859375,9.6640625,-0.0078125,-0.037109375,-0.0078125,-0.005126953125,0.02642822265625,-0.0003662109375,0.9996337890625,0.0009897018842246086,-0.31475878471352664,-0.029578985029091176
16,0.6800543409999591,bno085,0.08203125,0.05859375,9.66796875,0.001953125,-0.005859375,0.001953125,-0.005126953125,0.02593994140625,-0.00030517578125,0.9996337890625,0.0008002579938028458,-0.37080399479187415,-0.02287445362663183
17,0.720055250999394,bno085,-0.11328125,0.05859375,9.625,0.00390625,0.01171875,0.00390625,-0.005126953125,0.02593994140625,-0.00030517578125,0.9996337890625,0.0008002579938028458,-0.37080399479187415,-0.02287445362663183
18,0.7600624759998027,bno085,-0.07421875,-0.015625,9.625,0.00390625,0.013671875,0.001953125,-0.00506591796875,0.0260009765625,-0.000244140625,0.9996337890625,0.00756057655460106,-0.3638392084768888,-0.015665002696065005
19,0.800056016999406,bno085,-0.11328125,0.05859375,9.6640625,0.00390625,0.013671875,0.001953125,-0.0050048828125,0.026123046875,-0.000244140625,0.9996337890625,0.014543813861443012,-0.34983728268907427,-0.015409658018035
20,0.8400548350000463,bno085,-0.2265625,0.05859375,9.6640625,-0.00390625,0.01171875,-0.001953125,6.103515625e-05,0.00927734375,-0.00030517578125,0.99993896484375,0.5960299298548605,-2.2803212109304583,-0.027177544203488724
21,0.8800547079999888,bno085,-0.1484375,0.05859375,9.66796875,0.0,-0.0078125,-0.001953125,0.000244140625,0.00885009765625,-0.00030517578125,0.99993896484375,0.6170386912273716,-2.329277954970067,-0.027498150814321637
22,0.9200550819996351,bno085,-0.07421875,-0.015625,9.6640625,0.00390625,-0.009765625,-0.0078125,0.000244140625,0.00885009765625,-0.00030517578125,0.99993896484375,0.6170386912273716,-2.329277954970067,-0.027498150814321637
23,0.9600551029998314,bno085,-0.2265625,0.0234375,9.6640625,0.0,-0.02734375,-0.001953125,0.0003662109375,0.00836181640625,-0.0003662109375,0.99993896484375,0.6314120403446282,-2.385155051699129,-0.034969582402100144
24,1.0000553469999431,bno085,0.08203125,0.05859375,9.66796875,0.0,-0.02734375,-0.001953125,0.00048828125,0.00762939453125,-0.00048828125,1.0,0.6461763184721264,-2.4688769484420807,-0.04975973362728025
25,1.0400556089998645,bno085,-0.11328125,-0.015625,9.66796875,-0.001953125,-0.001953125,-0.001953125,0.0006103515625,0.00738525390625,-0.00054931640625,1.0,0.660543207058773,-2.4967727742121886,-0.05695857785244447
26,1.0800558159999127,bno085,-0.1484375,0.0234375,9.66796875,0.00390625,0.009765625,0.001953125,0.00067138671875,0.00738525390625,-0.00048828125,1.0,0.6671784473518461,-2.496846285106944,-0.04990649594618764
27,1.1200564709997707,bno085,-0.03515625,0.0234375,9.6640625,0.001953125,0.009765625,0.0,0.00067138671875,0.00738525390625,-0.00048828125,1.0,0.6671784473518461,-2.496846285106944,-0.04990649594618764
28,1.1600552359996072,bno085,-0.03515625,-0.015625,9.62890625,0.01171875,0.013671875,0.00390625,0.00079345703125,0.00738525390625,-0.00048828125,1.0,0.6811621816052914,-2.496840519438421,-0.049803026228471256
29,1.2000561499999094,bno085,-0.1484375,0.17578125,9.66796875,0.01171875,0.013671875,0.00390625,0.00103759765625,0.0074462890625,-0.0003662109375,1.0,0.7084104903529339,-2.4899931591511315,-0.03551619152507624
30,1.2400552310000421,bno085,-0.1875,0.09765625,9.66796875,-0.009765625,0.001953125,0.00390625,0.00091552734375,0.00732421875,-0.00030517578125,1.0,0.6940814547037535,-2.504064468996048,-0.028776952880898397
31,1.2800567369995406,bno085,0.1953125,-0.32421875,9.6640625,0.005859375,-0.001953125,0.0,0.0008544921875,0.00714111328125,-0.000244140625,1.0,0.6867476015469199,-2.525127222240856,-0.022061610879883058
32,1.320054557999356,bno085,-0.2265625,0.17578125,9.625,-0.005859375,-0.005859375,-0.001953125,0.0008544921875,0.00714111328125,-0.000244140625,1.0,0.6867476015469199,-2.525127222240856,-0.022061610879883058
33,1.3600548049998906,bno085,-0.11328125,0.0234375,9.6640625,0.0,-0.009765625,-0.001953125,0.00091552734375,0.00701904296875,-0.00030517578125,1.0,0.6941089084833683,-2.539036458313161,-0.0291688337145467
34,1.400055422999685,bno085,-0.07421875,0.0234375,9.66796875,0.0,-0.009765625,-0.001953125,0.00091552734375,0.00665283203125,-0.0003662109375,1.0,0.6945039878888686,-2.5809240688778257,-0.03663991192639832
35,1.4400561699994796,bno085,-0.07421875,0.05859375,9.66796875,0.00390625,-0.005859375,0.0,0.00103759765625,0.00640869140625,-0.00030517578125,1.0,0.7081487627263231,-2.6089762037464244,-0.029862910059046247
36,1.480055027999697,bno085,-0.11328125,0.05859375,9.6640625,-0.00390625,0.00390625,0.0,0.00103759765625,0.00640869140625,-0.0003662109375,1.0,0.7085122682928434,-2.608896966854142,-0.03686383655321327
37,1.5200559979994068,bno085,-0.07421875,0.05859375,9.66796875,0.0,0.00390625,0.0,0.00103759765625,0.00640869140625,-0.0003662109375,1.0,0.7085122682928434,-2.608896966854142,-0.03686383655321327
38,1.5600551339994126,bno085,-0.1484375,0.0234375,9.62890625,0.0,-0.005859375,0.0,0.0010986328125,0.00634765625,-0.0003662109375,1.0,0.7155104507839635,-2.615889100558653,-0.036898655503069734
39,1.6000556219996724,bno085,-0.11328125,0.0234375,9.6640625,0.0,-0.005859375,0.0,0.0010986328125,0.006103515625,-0.0003662109375,1.0,0.7155349439911534,-2.6438659277880125,-0.03721751977387264
40,1.6400550909993399,bno085,-0.07421875,0.05859375,9.62890625,0.001953125,-0.00390625,0.0,0.0010986328125,0.0059814453125,-0.0003662109375,1.0,0.7155472549365132,-2.6578542783938217,-0.03737696033016658
41,1.6800538569996206,bno085,-0.11328125,0.05859375,9.625,0.0,0.0,-0.001953125,0.00115966796875,0.005859375,-0.0003662109375,1.0,0.7225518266100313,-2.671840448645295,-0.03749535659077792
42,1.72005423399969,bno085,-0.07421875,0.0234375,9.66796875,0.0,0.0,0.001953125,0.00115966796875,0.005859375,-0.0003662109375,1.0,0.7225518266100313,-2.671840448645295,-0.03749535659077792
43,1.760056129000077,bno085,-0.03515625,0.0234375,9.6640625,0.001953125,0.005859375,0.001953125,0.00115966796875,0.0057373046875,-0.0003662109375,1.0,0.7225642533839658,-2.6858287095175384,-0.037655662677955455
44,1.8000544689994058,bno085,-0.11328125,0.05859375,9.6640625,0.001953125,0.005859375,0.001953125,0.001220703125,0.00579833984375,-0.00030517578125,1.0,0.7291824785587511,-2.678912961354854,-0.03053357818511024
45,1.8400558829998772,bno085,-0.11328125,0.0234375,9.6640625,0.001953125,0.001953125,0.0,0.001220703125,0.0057373046875,-0.00030517578125,1.0,0.7291882838071114,-2.6859070829071556,-0.03061411900747948
46,1.8800697030001174,bno085,-0.11328125,0.0234375,9.6640625,-0.00390625,-0.001953125,-0.001953125,0.001220703125,0.00567626953125,-0.00030517578125,1.0,0.7291940999803433,-2.6929011946533756,-0.030694661161120698
47,1.9200549879997197,bno085,-0.07421875,0.0234375,9.62890625,0.00390625,0.01171875,-0.001953125,0.001220703125,0.00567626953125,-0.00030517578125,1.0,0.7291940999803433,-2.6929011946533756,-0.030694661161120698
48,1.9600552539995988,bno085,-0.1484375,0.0234375,9.62890625,-0.00390625,-0.00390625,0.0,0.00128173828125,0.0057373046875,-0.00030517578125,1.0,0.7361805358725656,-2.6859053612711867,-0.03057392766435493
49,2.0000557599996682,bno085,-0.11328125,0.05859375,9.6640625,-0.00390625,-0.00390625,0.0,0.0013427734375,0.0057373046875,-0.0003662109375,1.0,0.7435410092524215,-2.685822264790703,-0.037535075428843684
50,2.0400565809995896,bno085,-0.11328125,0.0234375,9.6640625,0.001953125,0.001953125,0.0,0.0013427734375,0.00567626953125,-0.0003662109375,1.0,0.7435472843941127,-2.6928163672984655,-0.03761651193421793
51,2.0800560509997013,bno085,-0.11328125,0.0234375,9.6640625,0.001953125,0.0,0.0,0.0013427734375,0.005615234375,-0.0003662109375,1.0,0.7435535706801139,-2.69981046010292,-0.03769794988780698
52,2.12005556099939,bno085,-0.07421875,0.0234375,9.66796875,0.0,-0.001953125,0.0,0.0013427734375,0.005615234375,-0.0003662109375,1.0,0.7435535706801139,-2.69981046010292,-0.03769794988780698
53,2.1600550889997976,bno085,-0.07421875,0.05859375,9.66796875,0.0,0.005859375,0.001953125,0.00128173828125,0.005615234375,-0.0003662109375,1.0,0.736561286125954,-2.6998126171252017,-0.03773729142234425
54,2.2000556909997613,bno085,-0.03515625,0.05859375,9.6640625,0.0,0.005859375,0.001953125,0.00128173828125,0.0057373046875,-0.0003662109375,1.0,0.7365487551415455,-2.685824413036004,-0.037575271178405395
55,2.240055848999873,bno085,-0.1484375,0.0234375,9.66796875,-0.00390625,0.015625,0.0,0.00128173828125,0.0059814453125,-0.0003662109375,1.0,0.73652382564358,-2.657847886335848,-0.037251247944503865
56,2.2800548029999845,bno085,-0.07421875,0.0234375,9.66796875,0.00390625,0.01171875,0.001953125,0.00128173828125,0.0062255859375,-0.00042724609375,1.0,0.736863854563297,-2.6297902016386314,-0.04392827327117978
57,2.3200543869998,bno085,-0.1875,0.0234375,9.6640625,0.0,0.015625,0.0,0.00128173828125,0.0062255859375,-0.00042724609375,1.0,0.736863854563297,-2.6297902016386314,-0.04392827327117978
58,2.360054970999954,bno085,-0.2265625,0.0234375,9.625,0.0,-0.0078125,0.0,0.00128173828125,0.00653076171875,-0.00042724609375,1.0,0.7368310191730809,-2.594819100843126,-0.043523109524380654
59,2.40005586999996,bno085,-0.07421875,0.0234375,9.66796875,0.0,-0.0078125,0.0,0.00128173828125,0.00640869140625,-0.00042724609375,1.0,0.736844120194809,-2.6088075739199708,-0.043685170504903705
60,2.4400556020000295,bno085,-0.07421875,0.09765625,9.625,0.00390625,0.0,0.001953125,0.00128173828125,0.00628662109375,-0.0003662109375,1.0,0.7364929121154998,-2.6228769971395813,-0.03684625095278322
61,2.480053888999464,bno085,-0.1484375,0.0234375,9.62890625,0.001953125,0.0,0.0,0.0013427734375,0.00628662109375,-0.00030517578125,1.0,0.743120672446224,-2.6229562590849933,-0.029801228894204806
62,2.520053139999618,bno085,-0.07421875,0.0234375,9.66796875,0.001953125,-0.005859375,0.0,0.0013427734375,0.00628662109375,-0.00030517578125,1.0,0.743120672446224,-2.6229562590849933,-0.029801228894204806
63,2.560053797999899,bno085,-0.11328125,0.0234375,9.6640625,0.00390625,0.001953125,0.0,0.0013427734375,0.006103515625,-0.00030517578125,1.0,0.7431379448256128,-2.643938812210558,-0.030045386142515583
64,2.600053103999926,bno085,-0.1875,0.05859375,9.625,0.001953125,-0.005859375,-0.001953125,0.0013427734375,0.00604248046875,-0.00030517578125,1.0,0.7431437245463229,-2.6509329755845332,-0.03012677452288514
65,2.640053798999361,bno085,-0.1875,0.05859375,9.625,0.001953125,-0.005859375,-0.001953125,0.00140380859375,0.00604248046875,-0.00030517578125,1.0,0.7501359068042532,-2.6509312758709953,-0.03008444771653317
66,2.68005304899998,bno085,-0.07421875,0.0234375,9.66796875,0.005859375,-0.009765625,0.001953125,0.00146484375,0.0057373046875,-0.00030517578125,1.0,0.7571573056183606,-2.6859001963449267,-0.03045335363566629
67,2.7200538369997957,bno085,-0.11328125,0.0234375,9.6640625,-0.00390625,0.0,0.0,0.00146484375,0.00567626953125,-0.00030517578125,1.0,0.7571631824744451,-2.692894290547235,-0.03053560421127201
68,2.7600619759996334,bno085,-0.1484375,0.0234375,9.62890625,-0.001953125,-0.00390625,0.0,0.00146484375,0.00567626953125,-0.00030517578125,1.0,0.7571631824744451,-2.692894290547235,-0.03053560421127201
69,2.8000541339997653,bno085,-0.11328125,0.0234375,9.6640625,-0.001953125,-0.00390625,0.0,0.00146484375,0.005615234375,-0.00030517578125,1.0,0.757169070673013,-2.699888375047289,-0.030617856139015624
70,2.8400532919995385,bno085,-0.1484375,0.05859375,9.66796875,-0.00390625,-0.009765625,-0.001953125,0.00146484375,0.00531005859375,-0.00030517578125,1.0,0.7571986818191927,-2.7348586556592847,-0.03102913618923129
71,2.880053393999333,bno085,0.00390625,0.05859375,9.66796875,0.001953125,-0.0078125,-0.001953125,0.00146484375,0.00506591796875,-0.00030517578125,1.0,0.7572225749478946,-2.7628347161326094,-0.03135818494511374
72,2.9200558109996564,bno085,-0.11328125,0.05859375,9.6640625,-0.005859375,0.00390625,-0.001953125,0.00146484375,0.00506591796875,-0.00030517578125,1.0,0.7572225749478946,-2.7628347161326094,-0.03135818494511374
73,2.9600538400000005,bno085,-0.11328125,0.0234375,9.6640625,0.0,0.0,0.0,0.00146484375,0.005126953125,-0.0003662109375,1.0,0.75758909020342,-2.755758481443192,-0.03827765709285258
74,3.0000535350000064,bno085,-0.07421875,0.0234375,9.66796875,-0.00390625,0.00390625,0.0,0.00152587890625,0.00506591796875,-0.0003662109375,1.0,0.7645879431393398,-2.7627502862955633,-0.0383244651939081
75,3.0400543589994413,bno085,-0.11328125,0.0234375,9.6640625,-0.00390625,0.00390625,0.0,0.00152587890625,0.00518798828125,-0.0003662109375,1.0,0.7645750841133944,-2.7487622835411742,-0.03815900148782276
76,3.080055164999976,bno085,-0.11328125,0.0234375,9.6640625,0.001953125,0.00390625,0.0,0.00164794921875,0.0052490234375,-0.0003662109375,1.0,0.7785534508742141,-2.7417639021748834,-0.038002714304371674
77,3.1200545120000243,bno085,-0.11328125,0.0234375,9.6640625,0.00390625,0.001953125,0.0,0.00164794921875,0.0052490234375,-0.0003662109375,1.0,0.7785534508742141,-2.7417639021748834,-0.038002714304371674
78,3.160056579999946,bno085,-0.11328125,0.0234375,9.6640625,0.001953125,0.0,0.0,0.001708984375,0.0052490234375,-0.00030517578125,1.0,0.7851741970571183,-2.7418456571657392,-0.030964298800253767
79,3.2000554449996343,bno085,-0.03515625,0.0234375,9.6640625,0.001953125,0.0,0.0,0.001708984375,0.00518798828125,-0.00030517578125,1.0,0.7851802286865134,-2.7488396591205966,-0.03104826885856918
80,3.2400554949999787,bno085,-0.11328125,0.09765625,9.66796875,0.005859375,0.001953125,0.0,0.00177001953125,0.0052490234375,-0.00030517578125,1.0,0.7921665938347842,-2.7418439004165798,-0.030927524423723575
81,3.2800547119995827,bno085,-0.07421875,-0.015625,9.6640625,0.00390625,0.01171875,0.0,0.00189208984375,0.00537109375,-0.00030517578125,1.0,0.8061392734970337,-2.727852382291914,-0.030683476934885674
82,3.3200560770001175,bno085,-0.1875,0.13671875,9.66796875,0.0078125,0.01171875,-0.001953125,0.00189208984375,0.00537109375,-0.00030517578125,1.0,0.8061392734970337,-2.727852382291914,-0.030683476934885674
83,3.360054867999679,bno085,-0.11328125,-0.015625,9.66796875,-0.00390625,0.0,0.001953125,0.00201416015625,0.0054931640625,-0.00030517578125,1.0,0.8201118884236414,-2.7138608625143275,-0.03043601801683539
84,3.4000561960001505,bno085,-0.11328125,0.0234375,9.6640625,-0.00390625,0.0,0.001953125,0.001953125,0.00555419921875,-0.00030517578125,1.0,0.8131135071576847,-2.706868571411642,-0.030388829319769235
85,3.440062023999417,bno085,-0.11328125,0.05859375,9.6640625,-0.005859375,-0.00390625,0.0,0.00189208984375,0.0054931640625,-0.00030517578125,1.0,0.8061271987339713,-2.7138643409464507,-0.030512983804691394
86,3.480056221999803,bno085,0.00390625,-0.09375,9.66796875,0.001953125,0.0078125,0.0,0.001953125,0.00555419921875,-0.00030517578125,1.0,0.8131135071576847,-2.706868571411642,-0.030388829319769235
87,3.5200531800001045,bno085,-0.265625,0.21484375,9.625,-0.005859375,-0.005859375,0.0,0.001953125,0.00555419921875,-0.00030517578125,1.0,0.8131135071576847,-2.706868571411642,-0.030388829319769235
88,3.560055099999772,bno085,-0.11328125,0.05859375,9.6640625,-0.0078125,-0.00390625,-0.001953125,0.0018310546875,0.0054931640625,-0.00030517578125,1.0,0.7991348587862132,-2.713866080157513,-0.03055146669878714
89,3.6000632609993772,bno085,-0.07421875,-0.015625,9.6640625,0.0,0.0,0.0,0.001708984375,0.00537109375,-0.00030517578125,1.0,0.7851621690866968,-2.727857626231428,-0.030796362867270447
90,3.640055681999911,bno085,-0.07421875,-0.015625,9.6640625,0.0,0.0,0.0,0.001708984375,0.00537109375,-0.00030517578125,1.0,0.7851621690866968,-2.727857626231428,-0.030796362867270447
91,3.6800553059993035,bno085,-0.11328125,0.05859375,9.6640625,0.0,0.0,0.0,0.001708984375,0.00537109375,-0.00030517578125,1.0,0.7851621690866968,-2.727857626231428,-0.030796362867270447
92,3.7200601889999234,bno085,-0.11328125,0.05859375,9.6640625,0.0,0.0,0.0,0.001708984375,0.00537109375,-0.00030517578125,1.0,0.7851621690866968,-2.727857626231428,-0.030796362867270447
93,3.760059702000035,bno085,-0.07421875,0.0234375,9.62890625,0.0,0.0,0.0,0.001708984375,0.00537109375,-0.00030517578125,1.0,0.7851621690866968,-2.727857626231428,-0.030796362867270447
94,3.8000588819995755,bno085,-0.11328125,0.0234375,9.6640625,0.0,0.0,0.0,0.00164794921875,0.00537109375,-0.00030517578125,1.0,0.7781698069241162,-2.727859374205072,-0.03083399151161935
95,3.8400606730001527,bno085,-0.11328125,0.0234375,9.6640625,0.0,0.0,0.0,0.00164794921875,0.00531005859375,-0.00030517578125,1.0,0.7781757992315549,-2.7348533985972763,-0.030917531650453085
96,3.8800572599993757,bno085,-0.11328125,0.0234375,9.6640625,0.0,0.0,0.0,0.00164794921875,0.00531005859375,-0.00030517578125,1.0,0.7781757992315549,-2.7348533985972763,-0.030917531650453085
97,3.920055661999868,bno085,-0.11328125,0.05859375,9.6640625,0.0,0.0,0.0,0.00164794921875,0.00531005859375,-0.00030517578125,1.0,0.7781757992315549,-2.7348533985972763,-0.030917531650453085
98,3.96005589699962,bno085,-0.07421875,0.05859375,9.66796875,0.0,0.0,0.0,0.00164794921875,0.00531005859375,-0.00030517578125,1.0,0.7781757992315549,-2.7348533985972763,-0.030917531650453085
99,4.000055947999499,bno085,-0.11328125,0.0234375,9.625,0.0,0.0,0.0,0.00164794921875,0.00531005859375,-0.00030517578125,1.0,0.7781757992315549,-2.7348533985972763,-0.030917531650453085
100,4.04005547899942,bno085,-0.07421875,0.0234375,9.66796875,0.0,0.0,0.0,0.00164794921875,0.0052490234375,-0.00030517578125,1.0,0.778181803197161,-2.741847413911927,-0.031001073176892806
101,4.080056732999765,bno085,-0.07421875,0.0234375,9.62890625,0.0,0.0,0.0,0.00164794921875,0.0052490234375,-0.00030517578125,1.0,0.778181803197161,-2.741847413911927,-0.031001073176892806
102,4.120055248999961,bno085,-0.1484375,0.05859375,9.66796875,0.0,0.0,0.0,0.00164794921875,0.0052490234375,-0.00030517578125,1.0,0.778181803197161,-2.741847413911927,-0.031001073176892806
103,4.160055043999819,bno085,-0.03515625,0.0234375,9.6640625,0.0,0.0,0.0,0.00164794921875,0.0052490234375,-0.00030517578125,1.0,0.778181803197161,-2.741847413911927,-0.031001073176892806
104,4.200055040999359,bno085,-0.07421875,0.05859375,9.66796875,0.0,0.0,0.0,0.00164794921875,0.0052490234375,-0.00030517578125,1.0,0.778181803197161,-2.741847413911927,-0.031001073176892806
105,4.24005611299981,bno085,-0.1875,0.0234375,9.6640625,0.0,0.0,0.0,0.00164794921875,0.0052490234375,-0.00030517578125,1.0,0.778181803197161,-2.741847413911927,-0.031001073176892806
106,4.280061740999372,bno085,-0.07421875,0.0234375,9.66796875,0.0,0.0,0.0,0.00164794921875,0.0052490234375,-0.00030517578125,1.0,0.778181803197161,-2.741847413911927,-0.031001073176892806
107,4.320055016999504,bno085,-0.1484375,0.05859375,9.66796875,0.0,0.0,0.0,0.00164794921875,0.00518798828125,-0.00030517578125,1.0,0.7781878188214072,-2.748841420253186,-0.031084616094694983
108,4.360055754999848,bno085,-0.1484375,0.0234375,9.66796875,0.0,0.0,0.0,0.00164794921875,0.00518798828125,-0.00030517578125,1.0,0.7781878188214072,-2.748841420253186,-0.031084616094694983
109,4.400057437999749,bno085,-0.07421875,0.0234375,9.66796875,0.0,0.0,0.0,0.00164794921875,0.00518798828125,-0.00030517578125,1.0,0.7781878188214072,-2.748841420253186,-0.031084616094694983
110,4.4400581399995644,bno085,-0.11328125,0.0234375,9.6640625,0.0,0.0,0.0,0.00164794921875,0.00518798828125,-0.00030517578125,1.0,0.7781878188214072,-2.748841420253186,-0.031084616094694983
111,4.480056192999655,bno085,-0.11328125,0.0234375,9.6640625,0.0,0.0,0.0,0.00164794921875,0.00518798828125,-0.00030517578125,1.0,0.7781878188214072,-2.748841420253186,-0.031084616094694983
112,4.520055357999809,bno085,-0.11328125,0.0234375,9.6640625,0.0,0.0,0.0,0.00164794921875,0.00518798828125,-0.00030517578125,1.0,0.7781878188214072,-2.748841420253186,-0.031084616094694983
113,4.560055707000174,bno085,-0.11328125,0.0234375,9.625,0.0,0.0,0.0,0.00164794921875,0.00518798828125,-0.00030517578125,1.0,0.7781878188214072,-2.748841420253186,-0.031084616094694983
114,4.600057204999757,bno085,-0.07421875,0.0234375,9.66796875,0.0,0.0,0.0,0.00164794921875,0.00518798828125,-0.00030517578125,1.0,0.7781878188214072,-2.748841420253186,-0.031084616094694983
115,4.640057073999742,bno085,-0.11328125,0.05859375,9.6640625,0.0,0.0,0.0,0.00164794921875,0.00518798828125,-0.00030517578125,1.0,0.7781878188214072,-2.748841420253186,-0.031084616094694983
116,4.680056552999304,bno085,-0.11328125,0.0234375,9.6640625,0.0,0.0,0.0,0.00164794921875,0.00518798828125,-0.00030517578125,1.0,0.7781878188214072,-2.748841420253186,-0.031084616094694983
117,4.720057217999965,bno085,0.00390625,0.0234375,9.66796875,0.001953125,0.00390625,-0.001953125,0.00164794921875,0.00518798828125,-0.0003662109375,1.0,0.7785598952031451,-2.748757908027508,-0.03808629819992814
118,4.760059604000162,bno085,-0.11328125,0.0234375,9.6640625,-0.00390625,-0.001953125,0.001953125,0.00164794921875,0.00518798828125,-0.0003662109375,1.0,0.7785598952031451,-2.748757908027508,-0.03808629819992814
119,4.8000569729993,bno085,-0.07421875,0.0234375,9.66796875,-0.005859375,0.0,0.001953125,0.00164794921875,0.005126953125,-0.00030517578125,1.0,0.7781938461047667,-2.755835417725217,-0.03116816040761632
120,4.840056506999645,bno085,-0.07421875,0.0234375,9.66796875,-0.005859375,0.0,0.001953125,0.00164794921875,0.005126953125,-0.00030517578125,1.0,0.7781938461047667,-2.755835417725217,-0.03116816040761632
121,4.880059875999905,bno085,-0.07421875,0.0234375,9.66796875,0.001953125,0.00390625,0.0,0.00164794921875,0.00518798828125,-0.00030517578125,1.0,0.7781878188214072,-2.748841420253186,-0.031084616094694983
122,4.920059854999636,bno085,-0.07421875,0.0234375,9.66796875,0.0,0.0,0.0,0.00164794921875,0.00518798828125,-0.00030517578125,1.0,0.7781878188214072,-2.748841420253186,-0.031084616094694983
123,4.960059334000107,bno085,-0.1484375,0.0234375,9.66796875,0.001953125,0.001953125,0.0,0.00164794921875,0.00518798828125,-0.00030517578125,1.0,0.7781878188214072,-2.748841420253186,-0.031084616094694983
124,5.000058794999859,bno085,-0.07421875,0.0234375,9.66796875,-0.001953125,0.00390625,0.0,0.001708984375,0.00518798828125,-0.00030517578125,1.0,0.7851802286865134,-2.7488396591205966,-0.03104826885856918
125,5.040057366999463,bno085,-0.11328125,0.0234375,9.6640625,-0.001953125,0.00390625,0.0,0.001708984375,0.005126953125,-0.00030517578125,1.0,0.7851862720793323,-2.7558336522061384,-0.031132240316468173
126,5.080060401999617,bno085,-0.03515625,0.05859375,9.6640625,0.0,-0.015625,-0.001953125,0.00164794921875,0.0048828125,-0.0003662109375,1.0,0.7785922919028337,-2.7837278063167092,-0.03850424025061183
127,5.12005808899994,bno085,-0.03515625,0.0234375,9.6640625,-0.001953125,0.001953125,0.0,0.00164794921875,0.0048828125,-0.0003662109375,1.0,0.7785922919028337,-2.7837278063167092,-0.03850424025061183
128,5.160059238000031,bno085,-0.11328125,0.05859375,9.6640625,0.001953125,0.001953125,0.0,0.00164794921875,0.0048828125,-0.0003662109375,1.0,0.7785922919028337,-2.7837278063167092,-0.03850424025061183
129,5.200059220999719,bno085,-0.07421875,0.0234375,9.66796875,0.001953125,0.001953125,0.001953125,0.001708984375,0.0048828125,-0.0003662109375,1.0,0.7855847832010451,-2.783725596609686,-0.038470024376080464
130,5.240057721999619,bno085,-0.11328125,0.0234375,9.625,0.001953125,0.001953125,0.001953125,0.001708984375,0.0048828125,-0.0003662109375,1.0,0.7855847832010451,-2.783725596609686,-0.038470024376080464
131,5.280059500999414,bno085,-0.1484375,0.0234375,9.66796875,-0.005859375,0.00390625,-0.001953125,0.001708984375,0.00494384765625,-0.0003662109375,1.0,0.7855782639933107,-2.7767316384571887,-0.03838600578080114
132,5.320058872000118,bno085,-0.11328125,0.0234375,9.6640625,0.00390625,-0.005859375,-0.001953125,0.00177001953125,0.0048828125,-0.0003662109375,1.0,0.792577277417536,-2.783723386899951,-0.03843580850167811
133,5.360059409999849,bno085,-0.11328125,0.0234375,9.6640625,0.001953125,-0.001953125,-0.001953125,0.00177001953125,0.0048828125,-0.0003662109375,1.0,0.792577277417536,-2.783723386899951,-0.03843580850167811
134,5.400058782000087,bno085,-0.03515625,0.0234375,9.6640625,0.0,0.009765625,0.0,0.0018310546875,0.0048828125,-0.00042724609375,1.0,0.7999439854418632,-2.7836363327254823,-0.0454034674842617
135,5.440057967999564,bno085,-0.1484375,0.0234375,9.66796875,0.0,0.009765625,0.0,0.0018310546875,0.005126953125,-0.00042724609375,1.0,0.7999161333618818,-2.7556604860919185,-0.04506381958540504
136,5.480058376999295,bno085,-0.11328125,0.0234375,9.6640625,-0.00390625,0.00390625,0.0,0.0018310546875,0.00518798828125,-0.00042724609375,1.0,0.799909200327417,-2.748666502774259,-0.04497891167470847
137,5.52005723000002,bno085,-0.11328125,0.05859375,9.6640625,0.001953125,0.00390625,0.0,0.00189208984375,0.00531005859375,-0.00042724609375,1.0,0.8068877569679577,-2.734675903802533,-0.044771890370945124
138,5.560057415999836,bno085,-0.1484375,0.05859375,9.66796875,-0.00390625,-0.005859375,0.001953125,0.00189208984375,0.00531005859375,-0.00042724609375,1.0,0.8068877569679577,-2.734675903802533,-0.044771890370945124
139,5.6000595839996095,bno085,-0.07421875,0.0234375,9.66796875,-0.001953125,-0.001953125,0.0,0.00189208984375,0.00531005859375,-0.00042724609375,1.0,0.8068877569679577,-2.734675903802533,-0.044771890370945124
140,5.640057048000017,bno085,-0.11328125,0.05859375,9.6640625,-0.001953125,-0.001953125,0.0,0.001953125,0.0052490234375,-0.00042724609375,1.0,0.8138870877749194,-2.7416672905668165,-0.0448204389888211
141,5.68005595700015,bno085,-0.11328125,0.0234375,9.6640625,0.0,0.00390625,0.001953125,0.00189208984375,0.0052490234375,-0.0003662109375,1.0,0.8065230436407347,-2.741755168667911,-0.03785559916870056
142,5.72005688399986,bno085,-0.11328125,0.0234375,9.625,-0.001953125,-0.005859375,0.0,0.00189208984375,0.00518798828125,-0.00042724609375,1.0,0.8069016189588737,-2.7486638883756935,-0.04494255561827585
143,5.760058384999866,bno085,-0.03515625,0.0234375,9.6640625,-0.00390625,-0.00390625,-0.001953125,0.00189208984375,0.00518798828125,-0.00042724609375,1.0,0.8069016189588737,-2.7486638883756935,-0.04494255561827585
144,5.800058885999533,bno085,-0.11328125,0.0234375,9.6640625,0.001953125,0.0,0.00390625,0.0018310546875,0.00518798828125,-0.00042724609375,1.0,0.799909200327417,-2.748666502774259,-0.04497891167470847
145,5.840057646999412,bno085,-0.11328125,0.0234375,9.6640625,0.001953125,0.0,0.00390625,0.00189208984375,0.00518798828125,-0.0003662109375,1.0,0.8065295519852816,-2.748749156965213,-0.03794089162574801
146,5.880057332999968,bno085,-0.11328125,0.0234375,9.6640625,0.0,-0.005859375,0.001953125,0.00189208984375,0.00506591796875,-0.0003662109375,1.0,0.8065426049356299,-2.762737107051411,-0.038111481096785645
147,5.920056685999953,bno085,-0.11328125,-0.015625,9.66796875,0.0,-0.0078125,0.0,0.00189208984375,0.00494384765625,-0.0003662109375,1.0,0.8065557062376832,-2.776725022487483,-0.03828207666932947
148,5.960057094999684,bno085,-0.03515625,0.05859375,9.6640625,-0.00390625,0.00390625,0.0,0.00189208984375,0.00494384765625,-0.0003662109375,1.0,0.8065557062376832,-2.776725022487483,-0.03828207666932947
149,6.000058114999774,bno085,-0.1875,0.0234375,9.6640625,-0.001953125,-0.01171875,0.0,0.0018310546875,0.00494384765625,-0.0003662109375,1.0,0.7995632223977395,-2.7767272278135624,-0.0383167197063566
150,6.04005830099959,bno085,-0.03515625,0.0234375,9.6640625,-0.001953125,-0.01171875,0.0,0.0018310546875,0.00482177734375,-0.0003662109375,1.0,0.7995763389002533,-2.7907151182113967,-0.038486467080783356
151,6.080059301999427,bno085,-0.07421875,0.0234375,9.66796875,0.0,0.00390625,0.0,0.0018310546875,0.0047607421875,-0.0003662109375,1.0,0.7995829151297049,-2.797709050989567,-0.0385713430703115
152,6.120057602999623,bno085,-0.11328125,0.0234375,9.6640625,0.0,-0.005859375,0.0,0.0018310546875,0.00469970703125,-0.0003662109375,1.0,0.7995895033452965,-2.8047029756261272,-0.038656220599808645
153,6.160057256000073,bno085,-0.11328125,0.0234375,9.6640625,-0.00390625,-0.001953125,0.0,0.0018310546875,0.00469970703125,-0.0003662109375,1.0,0.7995895033452965,-2.8047029756261272,-0.038656220599808645
154,6.200058555999931,bno085,-0.07421875,0.0234375,9.66796875,-0.00390625,-0.001953125,0.0,0.00177001953125,0.00469970703125,-0.0003662109375,1.0,0.7925969559040039,-2.8047051985070532,-0.038689154957994736
155,6.240057782999429,bno085,-0.11328125,0.05859375,9.6640625,-0.00390625,-0.001953125,0.0,0.00177001953125,0.00469970703125,-0.0003662109375,1.0,0.7925969559040039,-2.8047051985070532,-0.038689154957994736
156,6.280058935999477,bno085,-0.07421875,0.0234375,9.66796875,0.0,0.001953125,0.0,0.001708984375,0.00469970703125,-0.0003662109375,1.0,0.7856044114851312,-2.80470742138534,-0.038722089316306656
157,6.3200573659996735,bno085,-0.07421875,0.05859375,9.66796875,0.0,-0.00390625,0.001953125,0.00164794921875,0.00469970703125,-0.0003662109375,1.0,0.7786118699845479,-2.8047096442610413,-0.03875502367474437
158,6.360059093000018,bno085,-0.07421875,0.0234375,9.66796875,0.001953125,0.001953125,-0.001953125,0.00164794921875,0.00469970703125,-0.0003662109375,1.0,0.7786118699845479,-2.8047096442610413,-0.03875502367474437
159,6.400059744999453,bno085,-0.1484375,0.0234375,9.66796875,-0.00390625,0.0,0.0,0.00164794921875,0.00469970703125,-0.0003662109375,1.0,0.7786118699845479,-2.8047096442610413,-0.03875502367474437
160,6.440058156999839,bno085,-0.11328125,0.0234375,9.6640625,-0.00390625,0.0,0.0,0.00164794921875,0.00469970703125,-0.00042724609375,1.0,0.7789873675776248,-2.8046260782292904,-0.04575703690220224
161,6.480060179999782,bno085,-0.07421875,0.0234375,9.66796875,0.0,-0.00390625,0.0,0.00164794921875,0.00469970703125,-0.0003662109375,1.0,0.7786118699845479,-2.8047096442610413,-0.03875502367474437
162,6.52005492599983,bno085,-0.07421875,0.05859375,9.66796875,0.001953125,-0.00390625,0.0,0.00164794921875,0.00457763671875,-0.0003662109375,1.0,0.7786249804064725,-2.818697495864556,-0.03892222026757975
163,6.560057800999857,bno085,-0.11328125,0.05859375,9.6640625,0.00390625,0.0,0.0,0.00164794921875,0.00457763671875,-0.0003662109375,1.0,0.7786249804064725,-2.818697495864556,-0.03892222026757975
164,6.6000574899999265,bno085,-0.03515625,0.05859375,9.6640625,0.0,-0.005859375,0.0,0.00164794921875,0.00457763671875,-0.0003662109375,1.0,0.7786249804064725,-2.818697495864556,-0.03892222026757975
165,6.640058568999848,bno085,-0.07421875,0.05859375,9.66796875,0.0,-0.005859375,0.0,0.001708984375,0.00433349609375,-0.0003662109375,1.0,0.7856439860726465,-2.8466708567435406,-0.03922626073183003
166,6.680060165999748,bno085,-0.1484375,0.0234375,9.62890625,0.00390625,-0.00390625,-0.001953125,0.0018310546875,0.004150390625,-0.0003662109375,1.0,0.7996493367462867,-2.86764794817064,-0.03942018829420539
167,6.720058504000008,bno085,-0.07421875,0.05859375,9.66796875,0.001953125,-0.009765625,0.0,0.00189208984375,0.00384521484375,-0.0003662109375,1.0,0.8066757944576347,-2.9026148396566978,-0.03981771645708734
168,6.760061137999401,bno085,-0.1484375,0.0234375,9.62890625,0.0,-0.029296875,0.00390625,0.00189208984375,0.00384521484375,-0.0003662109375,1.0,0.8066757944576347,-2.9026148396566978,-0.03981771645708734
169,6.80006080899966,bno085,0.00390625,0.05859375,9.66796875,-0.001953125,-0.009765625,0.0,0.0018310546875,0.00335693359375,-0.00030517578125,1.0,0.7993525356678179,-2.9586522762316254,-0.03352097667761246
170,6.84005792500011,bno085,-0.03515625,-0.015625,9.66796875,-0.001953125,-0.009765625,0.0,0.0018310546875,0.0030517578125,-0.00030517578125,1.0,0.7993848305588171,-2.9936210542055113,-0.033945340873930335
171,6.880059113999778,bno085,-0.03515625,0.0234375,9.6640625,-0.005859375,-0.009765625,-0.001953125,0.00177001953125,0.0028076171875,-0.00030517578125,1.0,0.7924177608863271,-3.021597914214819,-0.03430454505109166
172,6.920057507999445,bno085,0.00390625,0.05859375,9.66796875,0.0,-0.001953125,0.001953125,0.00177001953125,0.002685546875,-0.00030517578125,1.0,0.7924308182313397,-3.035585357604749,-0.03447345925351706
173,6.960059048999938,bno085,-0.11328125,0.05859375,9.6640625,-0.001953125,-0.015625,-0.001953125,0.00177001953125,0.002685546875,-0.00030517578125,1.0,0.7924308182313397,-3.035585357604749,-0.03447345925351706
174,7.000059293999584,bno085,0.04296875,0.0234375,9.66796875,0.001953125,-0.029296875,0.0,0.00177001953125,0.00238037109375,-0.00030517578125,1.0,0.7924636696479332,-3.0705538874345266,-0.03489577212326784
175,7.04005759499978,bno085,-0.03515625,0.05859375,9.6640625,0.001953125,-0.029296875,0.0,0.0018310546875,0.00164794921875,-0.0003662109375,1.0,0.799934207998104,-3.1543911291760685,-0.04290214501291862
176,7.080060821999723,bno085,-0.03515625,0.0234375,9.6640625,0.001953125,-0.0390625,0.0,0.0018310546875,0.00091552734375,-0.00042724609375,1.0,0.8004235070663174,-3.2382298630833883,-0.05092659147149815
177,7.120059404000131,bno085,0.1953125,0.05859375,9.66796875,-0.001953125,-0.01171875,0.0,0.0018310546875,0.00067138671875,-0.00048828125,1.0,0.8008584876790915,-3.2661194071707085,-0.05827171658134076
178,7.160058077999565,bno085,0.00390625,0.05859375,9.66796875,0.0,0.03125,-0.001953125,0.0018310546875,0.00067138671875,-0.00048828125,1.0,0.8008584876790915,-3.2661194071707085,-0.05827171658134076
179,7.200058696999804,bno085,-0.3046875,-0.015625,9.625,0.0,-0.037109375,0.001953125,0.00189208984375,0.0013427734375,-0.00054931640625,1.0,0.8081612315444511,-3.1891008188872623,-0.06433090513178595
180,7.240057704999344,bno085,-0.1484375,0.05859375,9.62890625,0.0,-0.037109375,0.001953125,0.001953125,0.00067138671875,-0.00048828125,1.0,0.8148462753627681,-3.266112674197827,-0.058262239722322084
181,7.28005841599952,bno085,0.04296875,0.05859375,9.66796875,0.0,-0.021484375,0.001953125,0.00201416015625,0.0,-0.00048828125,1.0,0.8219324081057153,-3.343038889465078,-0.05920768002358949
182,7.320057701999758,bno085,-0.11328125,-0.015625,9.62890625,0.0,-0.03125,0.0,0.0020751953125,-0.00054931640625,-0.00042724609375,1.0,0.8285909790868274,-3.4060644638392605,-0.05298312800081603
183,7.360057969000081,bno085,0.15625,0.05859375,9.6640625,-0.00390625,-0.01171875,0.0,0.0020751953125,-0.00054931640625,-0.00042724609375,1.0,0.8285909790868274,-3.4060644638392605,-0.05298312800081603
184,7.400058920999982,bno085,0.00390625,0.05859375,9.66796875,-0.00390625,-0.01171875,0.0,0.0020751953125,-0.00103759765625,-0.00042724609375,1.0,0.8286566607064996,-3.462013273575553,-0.05367748600381611
185,7.4400575959998605,bno085,0.00390625,0.05859375,9.66796875,-0.00390625,-0.01171875,0.0,0.0020751953125,-0.0013427734375,-0.00042724609375,1.0,0.8286981169850828,-3.496981333292309,-0.0541115257584526
186,7.480059473999972,bno085,-0.41796875,-0.015625,9.66796875,0.0,-0.03515625,-0.00390625,0.0020751953125,-0.00225830078125,-0.00054931640625,1.0,0.8296732356477153,-3.601712516179349,-0.06942882699102232
187,7.520059518999915,bno085,0.1171875,0.09765625,9.66796875,0.005859375,-0.087890625,-0.0078125,0.00225830078125,-0.0042724609375,-0.00067138671875,1.0,0.8518550368714769,-3.832317416069597,-0.08640776578482469
188,7.560058211999603,bno085,0.2734375,0.0234375,9.6640625,0.001953125,-0.083984375,0.00390625,0.00225830078125,-0.0042724609375,-0.00067138671875,1.0,0.8518550368714769,-3.832317416069597,-0.08640776578482469
189,7.600057681999715,bno085,0.30859375,0.05859375,9.6640625,0.001953125,-0.064453125,0.001953125,0.0023193359375,-0.00604248046875,-0.00054931640625,1.0,0.8582668797365257,-4.035313937253482,-0.07499377269179844
190,7.640056430999721,bno085,0.30859375,0.0234375,9.6640625,0.001953125,-0.064453125,0.001953125,0.00238037109375,-0.00762939453125,-0.00048828125,0.99993896484375,0.8650576313301886,-4.217195070168589,-0.07034082836731187
191,7.6800595309996424,bno085,0.234375,0.05859375,9.6640625,0.0,-0.01953125,0.0,0.00244140625,-0.00811767578125,-0.00042724609375,0.99993896484375,0.871672140708049,-4.273232429232777,-0.06409914722922762
192,7.720058131999394,bno085,0.04296875,0.0234375,9.66796875,0.001953125,-0.005859375,0.0,0.00238037109375,-0.00823974609375,-0.00048828125,0.99993896484375,0.8651606042246449,-4.287135283277429,-0.07123342681043687
193,7.760060361999422,bno085,0.1953125,0.05859375,9.66796875,0.0,-0.009765625,0.0,0.00238037109375,-0.00823974609375,-0.00048828125,0.99993896484375,0.8651606042246449,-4.287135283277429,-0.07123342681043687
194,7.800058905999322,bno085,0.30859375,0.0234375,9.6640625,0.001953125,0.033203125,0.001953125,0.0023193359375,-0.00848388671875,-0.00042724609375,0.99993896484375,0.8577355606480291,-4.315204233958467,-0.06451804365596628
195,7.84005687699937,bno085,0.1953125,0.05859375,9.66796875,0.001953125,0.033203125,0.001953125,0.0023193359375,-0.0079345703125,-0.00042724609375,0.99993896484375,0.8576465893275206,-4.2522574385256044,-0.06371903250571194
196,7.880057866999778,bno085,0.1953125,0.05859375,9.66796875,-0.005859375,0.04296875,0.001953125,0.00225830078125,-0.007080078125,-0.00042724609375,1.0,0.8505289505495833,-4.154395325702415,-0.06243042262064768
197,7.920057577999614,bno085,-0.1484375,-0.015625,9.6640625,0.001953125,0.00390625,0.001953125,0.00225830078125,-0.00677490234375,-0.0003662109375,1.0,0.8500247470895199,-4.119512038506151,-0.05497721326341036
198,7.960058251999726,bno085,0.1171875,0.0234375,9.6640625,0.0,-0.00390625,0.0,0.00225830078125,-0.00677490234375,-0.0003662109375,1.0,0.8500247470895199,-4.119512038506151,-0.05497721326341036
199,8.00005851900005,bno085,0.1953125,0.05859375,9.66796875,0.001953125,0.001953125,0.0,0.00225830078125,-0.0069580078125,-0.0003662109375,1.0,0.8500521463835077,-4.14049475041571,-0.055241928821884556
200,8.040059489999294,bno085,0.234375,0.05859375,9.6640625,0.001953125,0.001953125,0.0,0.00225830078125,-0.007080078125,-0.00042724609375,1.0,0.8505289505495833,-4.154395325702415,-0.06243042262064768
201,8.080062850000104,bno085,0.08203125,0.05859375,9.62890625,0.0,0.00390625,0.001953125,0.00225830078125,-0.0069580078125,-0.0003662109375,1.0,0.8500521463835077,-4.14049475041571,-0.055241928821884556
202,8.12005802800013,bno085,0.08203125,0.0234375,9.66796875,0.0,-0.01171875,0.0,0.002197265625,-0.0072021484375,-0.0003662109375,1.0,0.8430910059430755,-4.168474947322988,-0.055544438568440775
203,8.160058575999756,bno085,0.1953125,0.05859375,9.66796875,0.00390625,-0.013671875,0.0,0.002197265625,-0.0072021484375,-0.0003662109375,1.0,0.8430910059430755,-4.168474947322988,-0.055544438568440775
204,8.200057383000058,bno085,0.30859375,0.05859375,9.6640625,0.0,0.013671875,0.0,0.0023193359375,-0.007568359375,-0.0003662109375,0.99993896484375,0.8571259602960885,-4.210381909246431,-0.05617439881922699
205,8.240057023999725,bno085,0.1171875,0.05859375,9.6640625,0.0,0.013671875,0.0,0.00225830078125,-0.00732421875,-0.0003662109375,1.0,0.8501072916424647,-4.18246049725863,-0.05577142312710625
206,8.280057367999689,bno085,0.1953125,0.0234375,9.66796875,0.0,-0.005859375,0.0,0.00225830078125,-0.0074462890625,-0.0003662109375,0.99993896484375,0.8501097710241818,-4.196397138240772,-0.05594483342276015
207,8.32005763899997,bno085,0.15625,0.05859375,9.6640625,0.0,0.00390625,0.0,0.0023193359375,-0.0074462890625,-0.0003662109375,1.0,0.8571237825975186,-4.196446079458776,-0.05600013097348317
208,8.360060502000124,bno085,0.15625,0.05859375,9.6640625,0.001953125,0.001953125,0.0,0.00238037109375,-0.00738525390625,-0.0003662109375,1.0,0.864112469023365,-4.189448642619565,-0.05596320527590682
209,8.400058808999347,bno085,0.1171875,0.05859375,9.6640625,0.005859375,0.00390625,0.0,0.00238037109375,-0.00738525390625,-0.0003662109375,1.0,0.864112469023365,-4.189448642619565,-0.05596320527590682
210,8.440057801999501,bno085,0.15625,0.05859375,9.6640625,0.005859375,0.00390625,0.0,0.00238037109375,-0.00732421875,-0.0003662109375,1.0,0.8641031580810284,-4.182454317223624,-0.05587409105545106
211,8.480057460999888,bno085,0.1171875,0.05859375,9.6640625,0.005859375,0.0,-0.001953125,0.00244140625,-0.00732421875,-0.0003662109375,1.0,0.8711010973443815,-4.182451227192949,-0.05592542501901137
212,8.520057009000084,bno085,0.15625,0.05859375,9.6640625,0.00390625,-0.001953125,0.001953125,0.00250244140625,-0.00738525390625,-0.0003662109375,0.99993896484375,0.8780907116177452,-4.189390841566738,-0.05606362792426342
213,8.560057130999667,bno085,0.1171875,0.05859375,9.625,0.005859375,-0.005859375,0.001953125,0.00250244140625,-0.00738525390625,-0.0003662109375,0.99993896484375,0.8780907116177452,-4.189390841566738,-0.05606362792426342
214,8.600056678999863,bno085,0.1953125,0.05859375,9.66796875,0.0,0.0078125,-0.001953125,0.0025634765625,-0.0074462890625,-0.0003662109375,0.99993896484375,0.8850977056683457,-4.19638164544186,-0.05620578792746968
215,8.640057468000123,bno085,0.1171875,0.0234375,9.6640625,-0.001953125,0.0,0.001953125,0.0025634765625,-0.00732421875,-0.00030517578125,1.0,0.8846367829613783,-4.182535095135233,-0.04901585979419286
216,8.680056442000023,bno085,0.234375,0.05859375,9.6640625,-0.001953125,0.0,0.001953125,0.0025634765625,-0.00732421875,-0.00030517578125,1.0,0.8846367829613783,-4.182535095135233,-0.04901585979419286
217,8.7200586379995,bno085,0.08203125,0.0234375,9.66796875,-0.00390625,0.01171875,0.0,0.0025634765625,-0.0069580078125,-0.0003662109375,1.0,0.8850407274763602,-4.140479432741705,-0.055485745544042425
218,8.760059167999316,bno085,0.1953125,0.05859375,9.66796875,-0.00390625,0.015625,-0.001953125,0.0025634765625,-0.0069580078125,-0.0003662109375,1.0,0.8850407274763602,-4.140479432741705,-0.055485745544042425
219,8.8000577899993,bno085,0.1171875,0.0234375,9.6640625,-0.00390625,0.001953125,0.0,0.00250244140625,-0.006591796875,-0.0003662109375,1.0,0.8779874423865267,-4.098517282357046,-0.05489729071998001
220,8.840056209000068,bno085,0.08203125,0.05859375,9.66796875,-0.00390625,0.001953125,0.0,0.0025634765625,-0.00640869140625,-0.0003662109375,1.0,0.8849572379829447,-4.077531804639947,-0.054672384665738226
221,8.880057034999481,bno085,0.08203125,0.0234375,9.66796875,-0.005859375,0.00390625,-0.001953125,0.0025634765625,-0.00640869140625,-0.00042724609375,1.0,0.8854109673013526,-4.077441718603396,-0.06168369010006818
222,8.92005663799955,bno085,0.1171875,0.05859375,9.6640625,-0.001953125,0.017578125,0.0,0.0025634765625,-0.00604248046875,-0.00048828125,1.0,0.885804457134649,-4.035387002773999,-0.06815213157227895
223,8.960057259999303,bno085,0.00390625,0.05859375,9.66796875,-0.00390625,0.001953125,0.001953125,0.0025634765625,-0.00604248046875,-0.00048828125,1.0,0.885804457134649,-4.035387002773999,-0.06815213157227895
224,9.000056808999943,bno085,0.1171875,0.05859375,9.6640625,0.00390625,0.005859375,0.001953125,0.0025634765625,-0.005859375,-0.00042724609375,1.0,0.8853246808755857,-4.0144949821565366,-0.060869974098795555
225,9.040059375000055,bno085,0.1171875,0.05859375,9.625,0.00390625,0.005859375,0.001953125,0.00262451171875,-0.00567626953125,-0.0003662109375,1.0,0.8918445792233629,-3.9936000259741333,-0.0536279664241927
226,9.080059645999427,bno085,0.08203125,0.0234375,9.66796875,0.001953125,0.00390625,0.0,0.00262451171875,-0.0054931640625,-0.0003662109375,1.0,0.8918173669503874,-3.972618061907326,-0.053355686887400465
227,9.120056992999707,bno085,0.15625,0.05859375,9.6640625,0.001953125,0.01171875,-0.001953125,0.00262451171875,-0.005126953125,-0.0003662109375,1.0,0.8917633055519432,-3.9306543836616163,-0.05281118945571974
228,9.160058507999565,bno085,0.08203125,0.0234375,9.66796875,0.00390625,0.017578125,0.0,0.00262451171875,-0.005126953125,-0.0003662109375,1.0,0.8917633055519432,-3.9306543836616163,-0.05281118945571974
229,9.200058077999529,bno085,0.04296875,0.05859375,9.66796875,-0.00390625,-0.00390625,0.001953125,0.00262451171875,-0.00469970703125,-0.0003662109375,1.0,0.8917008457111745,-3.8816971548738177,-0.05217604533122289
230,9.240058573999704,bno085,0.1171875,0.05859375,9.6640625,-0.00390625,-0.00390625,0.001953125,0.0025634765625,-0.00469970703125,-0.0003662109375,1.0,0.8847044093697131,-3.881700055166329,-0.052143127698030256
231,9.28005871699952,bno085,0.1171875,0.0234375,9.6640625,0.005859375,0.00390625,0.001953125,0.00262451171875,-0.00469970703125,-0.0003662109375,1.0,0.8917008457111745,-3.8816971548738177,-0.05217604533122289
232,9.320058917000097,bno085,0.1171875,0.05859375,9.625,0.0,-0.001953125,0.0,0.00262451171875,-0.004638671875,-0.0003662109375,1.0,0.8916919766468286,-3.874703297901116,-0.052085319423803074
233,9.360058430999743,bno085,0.04296875,0.0234375,9.66796875,0.001953125,0.001953125,0.0,0.00262451171875,-0.004638671875,-0.0003662109375,1.0,0.8916919766468286,-3.874703297901116,-0.052085319423803074
234,9.40005768699939,bno085,0.08203125,0.05859375,9.66796875,0.001953125,0.0,0.0,0.00262451171875,-0.0045166015625,-0.00030517578125,1.0,0.8912338967388612,-3.860806047136055,-0.04489441284634561
235,9.440059681999628,bno085,0.1953125,0.05859375,9.66796875,-0.001953125,0.005859375,0.0,0.00262451171875,-0.00457763671875,-0.00030517578125,1.0,0.8912423083026758,-3.867799889156747,-0.044985076514919196
236,9.480058233999443,bno085,0.00390625,-0.015625,9.6640625,-0.001953125,0.005859375,0.0,0.002685546875,-0.00433349609375,-0.00030517578125,1.0,0.8982049876947017,-3.8398221200752363,-0.0446527880159414
237,9.520059081,bno085,0.1953125,0.09765625,9.6640625,-0.00390625,-0.0078125,0.001953125,0.00262451171875,-0.00439453125,-0.00030517578125,1.0,0.8912171138861389,-3.8468183860727443,-0.044713091852752206
238,9.560060558999794,bno085,0.1171875,0.05859375,9.625,0.00390625,0.013671875,0.0,0.00274658203125,-0.00408935546875,-0.00030517578125,1.0,0.9051676291860954,-3.8118445043330373,-0.044317108710080884
239,9.600058220999927,bno085,0.234375,0.09765625,9.66796875,-0.001953125,0.013671875,0.0,0.00274658203125,-0.00408935546875,-0.00030517578125,1.0,0.9051676291860954,-3.8118445043330373,-0.044317108710080884
240,9.640056938999805,bno085,0.00390625,0.0234375,9.62890625,-0.001953125,0.013671875,0.0,0.002685546875,-0.00396728515625,-0.000244140625,1.0,0.8977183338652267,-3.7979501924711663,-0.0370973771769966
241,9.680058730999917,bno085,0.1171875,0.05859375,9.6640625,0.001953125,0.00390625,0.0,0.002685546875,-0.0037841796875,-0.000244140625,1.0,0.8976947387582795,-3.7769689140319254,-0.03682434113877222
242,9.720057337999606,bno085,0.04296875,0.0234375,9.66796875,0.0,0.005859375,0.0,0.00274658203125,-0.00360107421875,-0.00030517578125,1.0,0.9051010669879473,-3.7558944939848726,-0.043585143732914784
243,9.76005859399993,bno085,0.1953125,0.05859375,9.66796875,-0.005859375,0.0,-0.00390625,0.002685546875,-0.003662109375,-0.0003662109375,1.0,0.8985477940739389,-3.762799764689008,-0.05065964603635093
244,9.800057477999871,bno085,0.00390625,0.0234375,9.66796875,0.0,-0.00390625,0.001953125,0.002685546875,-0.003662109375,-0.0003662109375,1.0,0.8985477940739389,-3.762799764689008,-0.05065964603635093
245,9.84006288099954,bno085,0.08203125,0.05859375,9.66796875,0.0,0.005859375,0.001953125,0.002685546875,-0.0035400390625,-0.00030517578125,1.0,0.8980969702556023,-3.7489031608726724,-0.0434688682908834
246,9.880056988999968,bno085,0.04296875,0.0234375,9.66796875,0.0,0.005859375,0.001953125,0.00262451171875,-0.00347900390625,-0.00030517578125,1.0,0.8910929536371207,-3.741911824977554,-0.04335345086103535
247,9.92005709499972,bno085,0.1171875,0.05859375,9.6640625,0.001953125,-0.00390625,0.0,0.002685546875,-0.0035400390625,-0.000244140625,1.0,0.8976634677268626,-3.748993965860547,-0.03646032062834754
248,9.960057739000149,bno085,0.08203125,0.05859375,9.66796875,0.005859375,0.0,0.0,0.002685546875,-0.00360107421875,-0.000244140625,1.0,0.8976712652248331,-3.7559876936000953,-0.036551322817532914
249,10.000059938999584,bno085,0.1171875,0.05859375,9.6640625,0.0,0.001953125,-0.001953125,0.002685546875,-0.00360107421875,-0.000244140625,1.0,0.8976712652248331,-3.7559876936000953,-0.036551322817532914
250,10.04005519400016,bno085,0.04296875,0.0234375,9.66796875,0.0,-0.015625,0.001953125,0.00274658203125,-0.00360107421875,-0.000244140625,1.0,0.9046671343938887,-3.755985726754736,-0.03657654439697727
251,10.080057282999405,bno085,0.15625,0.05859375,9.6640625,0.0,-0.015625,0.001953125,0.00274658203125,-0.00396728515625,-0.000244140625,1.0,0.9047143915833799,-3.7979481992237516,-0.03712516679648945
252,10.120056503999876,bno085,0.08203125,0.05859375,9.66796875,0.001953125,-0.001953125,0.001953125,0.00274658203125,-0.0040283203125,-0.000244140625,1.0,0.9047223154301444,-3.804941967679313,-0.037216610797839375
253,10.16005807700003,bno085,0.08203125,0.05859375,9.66796875,0.0,0.0,-0.001953125,0.002685546875,-0.004150390625,-0.000244140625,1.0,0.897742050564013,-3.818931531730448,-0.03737043104339016
254,10.200056501999825,bno085,0.04296875,0.0234375,9.66796875,0.0,-0.009765625,0.001953125,0.002685546875,-0.004150390625,-0.000244140625,1.0,0.897742050564013,-3.818931531730448,-0.03737043104339016
255,10.240058093999323,bno085,0.15625,0.05859375,9.6640625,0.0,-0.001953125,-0.001953125,0.002685546875,-0.00433349609375,-0.000244140625,1.0,0.8977658888730762,-3.8399129346223515,-0.03764350284916216
256,10.280057481999393,bno085,0.00390625,0.05859375,9.66796875,0.0,-0.001953125,-0.001953125,0.00262451171875,-0.00433349609375,-0.000244140625,1.0,0.8907696434200407,-3.839914954272506,-0.03761314492490404
257,10.320059165999737,bno085,0.04296875,0.0234375,9.66796875,0.00390625,-0.025390625,0.0,0.00262451171875,-0.0048828125,-0.000244140625,1.0,0.8908415926365393,-3.90285961248953,-0.038428616128805916
258,10.360058905999722,bno085,0.2734375,0.09765625,9.66796875,0.0,-0.005859375,0.0,0.00262451171875,-0.00531005859375,-0.000244140625,1.0,0.8908983043918808,-3.9518170309352154,-0.03906298532096375
259,10.400059238999347,bno085,-0.03515625,0.0234375,9.6640625,-0.005859375,-0.029296875,-0.001953125,0.00262451171875,-0.00531005859375,-0.000244140625,1.0,0.8908983043918808,-3.9518170309352154,-0.03906298532096375
260,10.44005877499967,bno085,0.1171875,0.05859375,9.6640625,0.001953125,-0.02734375,0.0,0.0025634765625,-0.005859375,-0.000244140625,1.0,0.8839751028845629,-4.014765069519061,-0.03983768951156919
261,10.480057754999507,bno085,0.1171875,0.05859375,9.6640625,0.001953125,-0.02734375,0.0,0.00262451171875,-0.00653076171875,-0.000244140625,1.0,0.8910639623721224,-4.091697934579904,-0.0408760307632056
262,10.52005716199983,bno085,0.15625,0.0234375,9.6640625,0.0,-0.029296875,0.0,0.00262451171875,-0.00714111328125,-0.00030517578125,1.0,0.8916077264892479,-4.16154958123293,-0.04879491568191314
263,10.560057308999603,bno085,0.30859375,0.05859375,9.6640625,-0.00390625,0.015625,0.00390625,0.00262451171875,-0.00689697265625,-0.000244140625,1.0,0.8911147074274735,-4.1336630360972935,-0.04142011028757236
264,10.600056493000011,bno085,-0.11328125,0.0234375,9.6640625,0.00390625,0.001953125,0.001953125,0.00262451171875,-0.00689697265625,-0.000244140625,1.0,0.8911147074274735,-4.1336630360972935,-0.04142011028757236
265,10.640056344000186,bno085,0.00390625,0.0234375,9.62890625,0.0,-0.029296875,0.0,0.002685546875,-0.00665283203125,-0.000244140625,1.0,0.898078374800468,-4.10568406908917,-0.04110401224371899
266,10.680058250999537,bno085,0.234375,0.05859375,9.6640625,0.0,-0.029296875,0.0,0.00274658203125,-0.00732421875,-0.000244140625,1.0,0.9051704408922844,-4.182618386694615,-0.042157654250803825
267,10.720059453999966,bno085,0.08203125,0.0234375,9.62890625,0.00390625,-0.029296875,-0.001953125,0.0028076171875,-0.00799560546875,-0.000244140625,0.99993896484375,0.9122451798071982,-4.259498231795021,-0.04321870079155466
268,10.760060990000056,bno085,0.30859375,0.05859375,9.6640625,0.001953125,-0.03125,0.0,0.0028076171875,-0.0086669921875,-0.00030517578125,0.99993896484375,0.9128130998324632,-4.336341433475399,-0.05124411055522611
269,10.800059118999343,bno085,0.30859375,0.05859375,9.6640625,0.005859375,0.01171875,-0.00390625,0.0028076171875,-0.0086669921875,-0.00030517578125,0.99993896484375,0.9128130998324632,-4.336341433475399,-0.05124411055522611
270,10.840057765999518,bno085,0.15625,0.05859375,9.6640625,0.0,0.0,0.0,0.0028076171875,-0.00848388671875,-0.00030517578125,0.99993896484375,0.9127848468623235,-4.31535901281861,-0.05096782889568469
271,10.8800591170002,bno085,0.15625,0.05859375,9.6640625,0.0,0.0,0.0,0.0028076171875,-0.00848388671875,-0.0003662109375,0.99993896484375,0.9132532222644817,-4.315267244265348,-0.057980823972511336
272,10.920057227000143,bno085,0.08203125,0.05859375,9.66796875,0.0,-0.015625,0.001953125,0.0028076171875,-0.0087890625,-0.00030517578125,0.99993896484375,0.9128320041007425,-4.350329787626593,-0.05142831043261179
273,10.960058540999853,bno085,0.08203125,0.0234375,9.62890625,0.001953125,-0.05859375,0.001953125,0.0028076171875,-0.01007080078125,-0.00030517578125,0.99993896484375,0.9130338311371371,-4.497211284463793,-0.053363002556829915
274,11.00005750299988,bno085,0.34765625,0.05859375,9.66796875,0.0078125,-0.064453125,0.001953125,0.0028076171875,-0.01007080078125,-0.00030517578125,0.99993896484375,0.9130338311371371,-4.497211284463793,-0.053363002556829915
275,11.04005964999942,bno085,0.34765625,0.05859375,9.66796875,0.00390625,-0.03125,0.0,0.0029296875,-0.01165771484375,-0.000244140625,0.99993896484375,0.9268022540469721,-4.679161831110873,-0.04890695307025743
276,11.080060037999829,bno085,0.1171875,0.0234375,9.6640625,0.00390625,-0.03125,0.0,0.0030517578125,-0.01239013671875,-0.00018310546875,0.99993896484375,0.9404265581620808,-4.763191564937258,-0.043179791630320215
277,11.12005837400011,bno085,0.30859375,0.09765625,9.66796875,0.00390625,-0.0390625,0.0,0.0030517578125,-0.0133056640625,-0.00018310546875,0.9998779296875,0.9405506261284732,-4.8680296233538725,-0.04458523727128281
278,11.160059005999756,bno085,0.00390625,0.0234375,9.66796875,0.001953125,-0.052734375,0.001953125,0.00311279296875,-0.014404296875,-0.0001220703125,0.9998779296875,0.9472214738807087,-4.994037508853689,-0.03935695334417939
279,11.200059934999445,bno085,0.15625,0.05859375,9.625,0.0078125,-0.1015625,0.001953125,0.00311279296875,-0.014404296875,-0.0001220703125,0.9998779296875,0.9472214738807087,-4.994037508853689,-0.03935695334417939
280,11.240059195999493,bno085,0.2734375,0.05859375,9.625,0.005859375,-0.095703125,-0.00390625,0.0032958984375,-0.0167236328125,-6.103515625e-05,0.9998779296875,0.9680856853396017,-5.259976620159577,-0.036270929929184584
281,11.280059846999393,bno085,0.34765625,0.09765625,9.625,0.005859375,-0.095703125,-0.00390625,0.00347900390625,-0.01898193359375,-0.00018310546875,0.99981689453125,0.9905440929447175,-5.518538855001352,-0.054256844763268246
282,11.320057737999377,bno085,0.30859375,0.05859375,9.6640625,-0.005859375,-0.1015625,-0.044921875,0.00347900390625,-0.021484375,-0.0006103515625,0.999755859375,0.9949294969841214,-5.804627158712946,-0.10743357064490174
283,11.360057906999828,bno085,0.46484375,0.09765625,9.6640625,0.0078125,-0.1171875,0.001953125,0.0037841796875,-0.0242919921875,-0.0006103515625,0.99969482421875,1.030672423257073,-6.126386152086738,-0.11278757401780835
284,11.400058297999749,bno085,0.73046875,-0.015625,9.6640625,0.001953125,-0.0703125,0.001953125,0.0037841796875,-0.0242919921875,-0.0006103515625,0.99969482421875,1.030672423257073,-6.126386152086738,-0.11278757401780835
285,11.440058966999459,bno085,0.69140625,0.0234375,9.62890625,-0.00390625,-0.04296875,-0.0078125,0.00396728515625,-0.0262451171875,-0.0003662109375,0.9996337890625,1.0498319420476723,-6.35059371709002,-0.08840780440723164
286,11.480060285000036,bno085,0.6171875,0.0234375,9.625,-0.00390625,-0.04296875,-0.0078125,0.00390625,-0.02734375,-0.00042724609375,0.9996337890625,1.0436973705757118,-6.476515049983065,-0.09707435242392325
287,11.520057638999788,bno085,0.42578125,0.05859375,9.625,0.001953125,-0.00390625,-0.001953125,0.00384521484375,-0.02777099609375,-0.00054931640625,0.9996337890625,1.0380057509402112,-6.525331588298278,-0.11165889815055116
288,11.56005943799937,bno085,0.34765625,0.05859375,9.66796875,0.001953125,-0.044921875,-0.00390625,0.0037841796875,-0.02880859375,-0.00054931640625,0.99957275390625,1.0312511759408391,-6.6441717679020025,-0.1131640992208228
289,11.600057846999334,bno085,0.6171875,0.05859375,9.625,0.0,-0.056640625,0.00390625,0.0037841796875,-0.02880859375,-0.00054931640625,0.99957275390625,1.0312511759408391,-6.6441717679020025,-0.1131640992208228
290,11.640055256999403,bno085,0.84765625,0.09765625,9.625,-0.001953125,-0.009765625,0.0,0.00384521484375,-0.03033447265625,-0.00048828125,0.99951171875,1.038046191643375,-6.81912091648013,-0.10884378668838998
291,11.680057777999536,bno085,0.65625,0.05859375,9.625,-0.001953125,-0.009765625,0.0,0.00372314453125,-0.0308837890625,-0.00048828125,0.99951171875,1.024166097782769,-6.882160458224354,-0.10931668626118612
292,11.720056946999648,bno085,0.6171875,0.09765625,9.66796875,-0.001953125,0.00390625,0.0,0.003662109375,-0.0308837890625,-0.00054931640625,0.99951171875,1.0177768454896337,-6.882067824294305,-0.11613994991749707
293,11.760062245999507,bno085,0.5390625,0.05859375,9.625,-0.00390625,-0.009765625,0.0,0.00360107421875,-0.0311279296875,-0.00048828125,0.99951171875,1.0101997257992728,-6.910185765177375,-0.10927835725100449
294,11.800057821999872,bno085,0.30859375,0.0234375,9.625,0.005859375,-0.041015625,0.0,0.00360107421875,-0.0311279296875,-0.00048828125,0.99951171875,1.0101997257992728,-6.910185765177375,-0.10927835725100449
295,11.840056473000004,bno085,0.5390625,0.05859375,9.625,0.001953125,-0.0859375,0.001953125,0.00347900390625,-0.0321044921875,-0.00048828125,0.99945068359375,0.9964103893447914,-7.022037696549796,-0.11040779686324212
296,11.880059974999313,bno085,0.84765625,0.09765625,9.625,0.001953125,-0.0859375,0.001953125,0.00360107421875,-0.03411865234375,-0.00042724609375,0.9993896484375,1.0103447928609781,-7.253049595903755,-0.10708669146559732
297,11.920057347999318,bno085,0.6171875,0.0234375,9.625,0.001953125,-0.06640625,0.001953125,0.003662109375,-0.03582763671875,-0.0003662109375,0.99932861328125,1.0171670243330544,-7.449068779391093,-0.10306764766908086
298,11.960060127999895,bno085,0.8828125,0.09765625,9.62890625,0.001953125,-0.025390625,0.0,0.00360107421875,-0.03662109375,-0.0003662109375,0.99932861328125,1.0103701041300859,-7.540166447801315,-0.10410643363278618
299,12.00005839000005,bno085,0.84765625,0.09765625,9.625,0.001953125,0.005859375,-0.001953125,0.00360107421875,-0.03662109375,-0.0003662109375,0.99932861328125,1.0103701041300859,-7.540166447801315,-0.10410643363278618
300,12.040057688999696,bno085,0.73046875,0.05859375,9.62890625,0.0,0.015625,0.001953125,0.00360107421875,-0.03656005859375,-0.00042724609375,0.99932861328125,1.0110211786132592,-7.53306106197853,-0.11105668513710833
301,12.080060319999575,bno085,1.07421875,0.13671875,9.625,0.0,0.015625,0.001953125,0.00360107421875,-0.03607177734375,-0.0003662109375,0.99932861328125,1.0102137483729794,-7.477101306622076,-0.10321226098854427
302,12.120057751999411,bno085,0.8828125,0.05859375,9.625,-0.009765625,0.099609375,0.00390625,0.0035400390625,-0.03399658203125,-0.00018310546875,0.9993896484375,1.0006898436459897,-7.23943357411077,-0.0784669663190803
303,12.160057572999904,bno085,0.38671875,0.0234375,9.62890625,-0.00390625,0.087890625,-0.001953125,0.00341796875,-0.0316162109375,-0.000244140625,0.99951171875,0.986749922216277,-6.9666193309334865,-0.08123558911606928
304,12.200056912000036,bno085,0.1953125,0.05859375,9.66796875,-0.00390625,0.0,-0.001953125,0.00341796875,-0.0316162109375,-0.000244140625,0.99951171875,0.986749922216277,-6.9666193309334865,-0.08123558911606928
305,12.24005647299964,bno085,0.84765625,0.13671875,9.625,-0.00390625,0.0078125,-0.001953125,0.00341796875,-0.03131103515625,-0.00054931640625,0.99951171875,0.9898288508621143,-6.9311173029276345,-0.11595580926108884
306,12.280057070999646,bno085,0.46484375,0.0234375,9.66796875,-0.00390625,0.0078125,-0.001953125,0.00341796875,-0.0313720703125,-0.00054931640625,0.99951171875,0.989846020372399,-6.938121099502444,-0.1160538190171494
307,12.320056892000139,bno085,0.5,0.05859375,9.625,0.0,-0.0234375,0.00390625,0.00341796875,-0.0318603515625,-0.00048828125,0.99951171875,0.989349206491724,-6.994250011316456,-0.1097955817993875
308,12.360059822999574,bno085,0.578125,0.05859375,9.6640625,0.001953125,-0.03125,0.001953125,0.00341796875,-0.032470703125,-0.00048828125,0.99945068359375,0.9894941078792523,-7.064068733862421,-0.11076943045616815
309,12.400060735999432,bno085,0.65625,0.09765625,9.62890625,0.0,-0.0390625,-0.001953125,0.00341796875,-0.032470703125,-0.00048828125,0.99945068359375,0.9894941078792523,-7.064068733862421,-0.11076943045616815
310,12.440058796999438,bno085,0.65625,0.05859375,9.625,0.001953125,-0.04296875,0.0,0.00347900390625,-0.03338623046875,-0.00048828125,0.99945068359375,0.9967708462000558,-7.169134831167296,-0.11247501427909627
311,12.480057839999972,bno085,0.76953125,0.09765625,9.62890625,0.001953125,-0.04296875,0.0,0.0035400390625,-0.03436279296875,-0.00048828125,0.9993896484375,1.0040458419759974,-7.280979976509579,-0.1142877019094718
312,12.520059493999725,bno085,0.73046875,0.05859375,9.66796875,0.0,-0.041015625,0.001953125,0.0035400390625,-0.03521728515625,-0.00042724609375,0.9993896484375,1.0036357486819376,-7.379163156486374,-0.1086264848096516
313,12.560059722000005,bno085,0.80859375,0.05859375,9.625,0.001953125,-0.033203125,0.001953125,0.00360107421875,-0.03607177734375,-0.0003662109375,0.99932861328125,1.0102137483729794,-7.477101306622076,-0.10321226098854427
314,12.600058430999525,bno085,0.80859375,0.09765625,9.62890625,-0.001953125,-0.01171875,0.0,0.00360107421875,-0.03607177734375,-0.0003662109375,0.99932861328125,1.0102137483729794,-7.477101306622076,-0.10321226098854427
315,12.640057732999594,bno085,0.8828125,0.09765625,9.62890625,-0.005859375,0.02734375,-0.001953125,0.00360107421875,-0.036376953125,-0.0003662109375,0.99932861328125,1.0103004555101172,-7.512136877809269,-0.10370897647436446
316,12.68005962799998,bno085,0.65625,0.09765625,9.62890625,-0.005859375,0.02734375,-0.001953125,0.00360107421875,-0.0360107421875,-0.00042724609375,0.99932861328125,1.0108610007558798,-7.46999649090782,-0.11016153409459209
317,12.720059799999945,bno085,0.46484375,0.05859375,9.62890625,-0.001953125,0.001953125,0.0,0.00360107421875,-0.03594970703125,-0.00048828125,0.99932861328125,1.0115073791849643,-7.462891689241704,-0.11711058458890204
318,12.760062268000183,bno085,0.69140625,0.09765625,9.625,0.00390625,-0.041015625,-0.001953125,0.00372314453125,-0.03692626953125,-0.00048828125,0.99932861328125,1.0258477068681005,-7.574996708034283,-0.11922495631688836
319,12.800057718999597,bno085,0.65625,0.05859375,9.625,0.00390625,-0.06640625,0.005859375,0.00372314453125,-0.03692626953125,-0.00048828125,0.99932861328125,1.0258477068681005,-7.574996708034283,-0.11922495631688836
320,12.840056205999645,bno085,0.69140625,0.05859375,9.62890625,0.005859375,-0.076171875,0.001953125,0.00390625,-0.0384521484375,-0.0003662109375,0.999267578125,1.046003614901818,-7.7501255056232345,-0.10844127753185788
321,12.880058173999714,bno085,0.84765625,0.09765625,9.625,0.005859375,-0.076171875,0.001953125,0.00396728515625,-0.04034423828125,-0.00030517578125,0.99920654296875,1.0528855067447178,-7.967249802364411,-0.10481940293487559
322,12.920055309999952,bno085,0.84765625,0.05859375,9.62890625,0.01171875,-0.068359375,0.00390625,0.004150390625,-0.0421142578125,-0.0001220703125,0.99908447265625,1.0723378417038352,-8.170290229777542,-0.08749017083196263
323,12.960055759999705,bno085,0.8828125,0.09765625,9.62890625,0.005859375,-0.060546875,0.001953125,0.00433349609375,-0.04376220703125,-6.103515625e-05,0.9990234375,1.09317654271634,-8.359421627283462,-0.08414159231145497
324,13.000055857999541,bno085,0.8828125,0.09765625,9.62890625,0.001953125,-0.0703125,-0.00390625,0.00433349609375,-0.04376220703125,-6.103515625e-05,0.9990234375,1.09317654271634,-8.359421627283462,-0.08414159231145497
325,13.04005506700014,bno085,0.84765625,0.09765625,9.5859375,0.0078125,-0.099609375,-0.0078125,0.00445556640625,-0.04547119140625,-0.00018310546875,0.99896240234375,1.1092001534884919,-8.555292918146893,-0.10183980397912357
326,13.080055702999744,bno085,0.921875,0.05859375,9.58984375,0.0078125,-0.099609375,-0.0078125,0.004638671875,-0.0478515625,-0.00030517578125,0.99884033203125,1.1325394117690921,-8.828047748171132,-0.12111527123920439
327,13.120055970999601,bno085,0.8828125,0.13671875,9.62890625,0.00390625,-0.119140625,0.0,0.00482177734375,-0.05078125,-0.0003662109375,0.99871826171875,1.1554374787451074,-9.164140855478681,-0.1344292896731275
328,13.160055923999607,bno085,1.0,0.09765625,9.58984375,0.0,-0.14453125,0.00390625,0.0048828125,-0.0543212890625,-0.0003662109375,0.99853515625,1.1637697178038968,-9.570334045685831,-0.14114732884170647
329,13.200055006999719,bno085,1.0,0.09765625,9.58984375,0.005859375,-0.158203125,0.0,0.0048828125,-0.0543212890625,-0.0003662109375,0.99853515625,1.1637697178038968,-9.570334045685831,-0.14114732884170647
330,13.240055423999365,bno085,1.23046875,0.05859375,9.58984375,0.0,-0.169921875,-0.0078125,0.00506591796875,-0.0582275390625,-0.0003662109375,0.998291015625,1.186403598504987,-10.018445322073285,-0.14942318604069496
331,13.280058339999414,bno085,1.421875,0.17578125,9.546875,0.0,-0.169921875,-0.0078125,0.00506591796875,-0.06243896484375,-0.00067138671875,0.998046875,1.1923928022760426,-10.501389307325116,-0.1926245032464339
332,13.32005523799944,bno085,1.3828125,0.05859375,9.5859375,0.01171875,-0.173828125,0.005859375,0.00518798828125,-0.06646728515625,-0.00067138671875,0.997802734375,1.2083883545579552,-10.964011614672224,-0.2010195451325386
333,13.360055987999658,bno085,1.4609375,0.09765625,9.546875,0.009765625,-0.158203125,-0.0078125,0.00543212890625,-0.07025146484375,-0.00079345703125,0.99749755859375,1.2403120694536747,-11.397989789276599,-0.22432708317766636
334,13.400059089000024,bno085,1.421875,0.13671875,9.55078125,0.013671875,-0.11328125,0.0,0.00543212890625,-0.07025146484375,-0.00079345703125,0.99749755859375,1.2403120694536747,-11.397989789276599,-0.22432708317766636
335,13.440058745999522,bno085,1.421875,0.09765625,9.55078125,0.015625,-0.107421875,0.00390625,0.005615234375,-0.07232666015625,-0.000732421875,0.99737548828125,1.261712168071811,-11.636656368652268,-0.2227241975834284
336,13.480055385000014,bno085,1.3828125,0.13671875,9.546875,0.015625,-0.107421875,0.00390625,0.0054931640625,-0.07220458984375,-0.00067138671875,0.99737548828125,1.24655299322381,-11.622694710681476,-0.2143348425544975
337,13.520055707999745,bno085,1.3828125,0.05859375,9.5078125,0.0078125,-0.119140625,-0.001953125,0.00555419921875,-0.07366943359375,-0.000732421875,0.99725341796875,1.255316407664265,-11.790731175268428,-0.22479031693530874
338,13.56005593899954,bno085,1.91796875,0.21484375,9.546875,0.001953125,-0.078125,0.001953125,0.00567626953125,-0.07568359375,-0.00067138671875,0.99713134765625,1.269621286267626,-12.022487745383934,-0.22263539092269308
339,13.6000559109998,bno085,1.765625,0.09765625,9.55078125,0.001953125,-0.013671875,-0.001953125,0.00567626953125,-0.07598876953125,-0.00067138671875,0.9970703125,1.2697579435066149,-12.057229569852005,-0.22322239829834825
340,13.640055216999826,bno085,1.53515625,0.09765625,9.51171875,-0.00390625,0.005859375,-0.001953125,0.00567626953125,-0.07598876953125,-0.00067138671875,0.9970703125,1.2697579435066149,-12.057229569852005,-0.22322239829834825
341,13.680055039999388,bno085,1.4609375,0.13671875,9.546875,-0.00390625,0.005859375,-0.001953125,0.005615234375,-0.0758056640625,-0.00067138671875,0.99713134765625,1.2626049575799645,-12.036604601736759,-0.22233233710624759
342,13.720055660000071,bno085,1.421875,0.09765625,9.55078125,0.001953125,-0.01171875,0.0,0.00567626953125,-0.07598876953125,-0.00067138671875,0.9970703125,1.2697579435066149,-12.057229569852005,-0.22322239829834825
343,13.760061057999337,bno085,1.4609375,0.13671875,9.546875,0.001953125,-0.037109375,0.001953125,0.00567626953125,-0.07684326171875,-0.00067138671875,0.99700927734375,1.2702180671408716,-12.155457472897327,-0.22488605963941374
344,13.800058881999576,bno085,1.53515625,0.09765625,9.51171875,0.0,-0.056640625,0.001953125,0.00567626953125,-0.07684326171875,-0.00067138671875,0.99700927734375,1.2702180671408716,-12.155457472897327,-0.22488605963941374
345,13.84005813099975,bno085,1.4609375,0.09765625,9.51171875,-0.0078125,-0.08984375,-0.001953125,0.00567626953125,-0.078125,-0.00067138671875,0.9969482421875,1.2709367506249263,-12.303095059440885,-0.22739019663273471
346,13.88005532599982,bno085,1.4609375,0.09765625,9.47265625,0.005859375,-0.126953125,0.001953125,0.005615234375,-0.080078125,-0.000732421875,0.99676513671875,1.2658808616651518,-12.527225996619535,-0.23776501779520126
347,13.920058630999847,bno085,1.4609375,0.09765625,9.51171875,0.005859375,-0.126953125,0.001953125,0.00567626953125,-0.08306884765625,-0.00079345703125,0.99652099609375,1.275688277540624,-12.870913844919986,-0.25135052301605487
348,13.960057565999705,bno085,1.65234375,0.05859375,9.46875,0.01171875,-0.15625,0.009765625,0.00592041015625,-0.08697509765625,-0.00079345703125,0.9962158203125,1.3064729390014458,-13.320325772235691,-0.2615572905154893
349,14.00005803699969,bno085,1.91796875,0.13671875,9.47265625,-0.00390625,-0.142578125,-0.02734375,0.00604248046875,-0.09051513671875,-0.00128173828125,0.995849609375,1.331422999646696,-13.726056076907836,-0.32732031204744827
350,14.040055268999822,bno085,1.84375,0.05859375,9.46875,0.01171875,-0.12890625,0.001953125,0.00604248046875,-0.09051513671875,-0.00128173828125,0.995849609375,1.331422999646696,-13.726056076907836,-0.32732031204744827
351,14.080057239999405,bno085,1.91796875,0.13671875,9.47265625,0.01171875,-0.12890625,0.001953125,0.00628662109375,-0.09375,-0.00128173828125,0.99560546875,1.3622608850279825,-14.098778443244221,-0.3366959846009697
352,14.120065011999941,bno085,2.03515625,0.13671875,9.47265625,0.0078125,-0.125,-0.005859375,0.00653076171875,-0.0966796875,-0.0013427734375,0.99530029296875,1.394047215749127,-14.43552537578546,-0.3528132971780736
353,14.160057264999523,bno085,2.33984375,0.05859375,9.43359375,0.005859375,-0.095703125,0.00390625,0.0067138671875,-0.09912109375,-0.0010986328125,0.99505615234375,1.4128019222824761,-14.716993337623462,-0.3314053779623274
354,14.200055591999444,bno085,1.91796875,0.17578125,9.46875,-0.0078125,-0.064453125,-0.01953125,0.0067138671875,-0.09912109375,-0.0010986328125,0.99505615234375,1.4128019222824761,-14.716993337623462,-0.3314053779623274
355,14.24005658599981,bno085,2.1484375,0.17578125,9.4296875,0.00390625,-0.015625,0.0,0.00689697265625,-0.10052490234375,-0.00091552734375,0.99493408203125,1.4318769256521384,-14.879177595121538,-0.31502071905602647
356,14.280056615999456,bno085,1.99609375,0.17578125,9.43359375,0.001953125,-0.0078125,-0.001953125,0.00689697265625,-0.10125732421875,-0.0009765625,0.99481201171875,1.4335332247980583,-14.96285776409551,-0.3238016452458993
357,14.320058590999906,bno085,1.84375,0.13671875,9.4296875,0.001953125,-0.0078125,-0.001953125,0.00689697265625,-0.101806640625,-0.00103759765625,0.99481201171875,1.4351511653571223,-15.02663543913078,-0.33221463960152786
358,14.360059474000082,bno085,2.1484375,0.17578125,9.4296875,0.001953125,-0.03125,-0.001953125,0.0069580078125,-0.10284423828125,-0.00115966796875,0.99468994140625,1.4454151027920554,-15.145703725384577,-0.34963386071309355
359,14.40005798599941,bno085,1.87890625,0.09765625,9.4296875,0.00390625,-0.056640625,-0.001953125,0.007080078125,-0.104248046875,-0.0013427734375,0.9945068359375,1.4643337012349147,-15.306569396884063,-0.37585719236287
360,14.440059294000093,bno085,2.1875,0.17578125,9.43359375,0.00390625,-0.056640625,-0.001953125,0.007080078125,-0.104248046875,-0.0013427734375,0.9945068359375,1.4643337012349147,-15.306569396884063,-0.37585719236287
361,14.480060250999486,bno085,2.26171875,0.13671875,9.4296875,0.0,-0.01953125,-0.001953125,0.0072021484375,-0.1048583984375,-0.00146484375,0.99444580078125,1.4815162544633471,-15.376628994792195,-0.3931648024864164
362,14.520060040999851,bno085,1.99609375,0.17578125,9.39453125,0.0,-0.01953125,-0.001953125,0.00726318359375,-0.10546875,-0.00146484375,0.994384765625,1.4891999491197463,-15.446969257188089,-0.39530639312313215
363,14.560055979000026,bno085,1.95703125,0.13671875,9.4296875,0.0,-0.013671875,-0.001953125,0.00732421875,-0.1060791015625,-0.00152587890625,0.99432373046875,1.4980786124567755,-15.517190597120075,-0.4046753001093117
364,14.600055676999546,bno085,2.03515625,0.09765625,9.4296875,-0.00390625,-0.05078125,-0.01171875,0.00732421875,-0.1060791015625,-0.00152587890625,0.99432373046875,1.4980786124567755,-15.517190597120075,-0.4046753001093117
365,14.640055947999826,bno085,2.30078125,0.17578125,9.390625,0.0,-0.009765625,-0.005859375,0.0074462890625,-0.10723876953125,-0.0015869140625,0.99420166015625,1.5146241729500147,-15.650675796112226,-0.41609484268271835
366,14.680055867999727,bno085,2.0703125,0.09765625,9.4296875,0.00390625,-0.029296875,0.001953125,0.0074462890625,-0.10791015625,-0.0015869140625,0.994140625,1.5152363683400147,-15.728185644016497,-0.4176424518899637
367,14.720055916999627,bno085,1.8046875,0.09765625,9.43359375,0.00390625,-0.029296875,0.001953125,0.007568359375,-0.10882568359375,-0.00164794921875,0.9940185546875,1.5315890712047104,-15.833258693169075,-0.4285504603278843
368,14.760057798999696,bno085,2.45703125,0.17578125,9.39453125,0.001953125,-0.0703125,0.001953125,0.00762939453125,-0.11065673828125,-0.00164794921875,0.99383544921875,1.540472049744307,-16.04452956366887,-0.433621702146288
369,14.80005664500004,bno085,2.30078125,0.17578125,9.390625,0.005859375,-0.01953125,0.005859375,0.00762939453125,-0.11065673828125,-0.00164794921875,0.99383544921875,1.540472049744307,-16.04452956366887,-0.433621702146288
370,14.84005587899992,bno085,2.1875,0.17578125,9.39453125,-0.00390625,-0.037109375,0.001953125,0.00762939453125,-0.1114501953125,-0.00152587890625,0.99371337890625,1.5387199448777293,-16.135848137135003,-0.4209981400623114
371,14.880055576999439,bno085,2.2265625,0.17578125,9.39453125,-0.00390625,-0.037109375,0.001953125,0.0076904296875,-0.1123046875,-0.00140380859375,0.99365234375,1.544245955712757,-16.23504695508699,-0.4093485568198948
372,14.920055421999677,bno085,2.1484375,0.17578125,9.390625,0.0,-0.01953125,0.0,0.0076904296875,-0.1129150390625,-0.00140380859375,0.99359130859375,1.5448128365828435,-16.30552548816668,-0.41077890172095677
373,14.960056230000191,bno085,2.0703125,0.17578125,9.39453125,0.001953125,-0.025390625,-0.001953125,0.0076904296875,-0.11370849609375,-0.00140380859375,0.99346923828125,1.5455134453210098,-16.39662164047781,-0.4126273326491902
374,15.000055724000049,bno085,2.1875,0.09765625,9.390625,-0.001953125,-0.072265625,0.0,0.0076904296875,-0.11370849609375,-0.00140380859375,0.99346923828125,1.5455134453210098,-16.39662164047781,-0.4126273326491902
375,15.040055235999716,bno085,2.33984375,0.09765625,9.390625,-0.005859375,-0.046875,-0.03515625,0.0076904296875,-0.1153564453125,-0.00140380859375,0.9932861328125,1.5470503583626083,-16.586763249884,-0.41649678533497486
376,15.08005650799987,bno085,2.609375,0.25,9.35546875,-0.005859375,-0.046875,-0.03515625,0.00762939453125,-0.1168212890625,-0.002197265625,0.99310302734375,1.5577835816140049,-16.753885229724666,-0.5133726623805995
377,15.120056374999876,bno085,2.33984375,0.13671875,9.35546875,0.0,-0.091796875,0.0,0.00762939453125,-0.11871337890625,-0.00238037109375,0.992919921875,1.5636788679080837,-16.972323513216526,-0.5397064175724721
378,15.16005651999967,bno085,2.4921875,0.17578125,9.35546875,0.00390625,-0.083984375,-0.0078125,0.00775146484375,-0.1207275390625,-0.00244140625,0.99267578125,1.5815856078306765,-17.204554640341865,-0.5536092288726799
379,15.200055794999571,bno085,2.53125,0.21484375,9.3515625,0.005859375,-0.033203125,-0.001953125,0.00775146484375,-0.1207275390625,-0.00244140625,0.99267578125,1.5815856078306765,-17.204554640341865,-0.5536092288726799
380,15.240055291999852,bno085,2.30078125,0.17578125,9.35546875,0.001953125,-0.02734375,-0.0078125,0.0079345703125,-0.12176513671875,-0.00244140625,0.9925537109375,1.6043708473083,-17.32429646208309,-0.5588223459337837
381,15.280055899999752,bno085,2.4921875,0.17578125,9.35546875,0.001953125,-0.015625,0.001953125,0.00799560546875,-0.1224365234375,-0.00250244140625,0.992431640625,1.613619134825017,-17.401097441523987,-0.5686338248632349
382,15.320055729999694,bno085,2.53125,0.17578125,9.35546875,0.001953125,-0.015625,0.001953125,0.008056640625,-0.12298583984375,-0.00250244140625,0.99237060546875,1.6214670151901196,-17.46457554472579,-0.5709038599824802
383,15.36005618999934,bno085,2.4921875,0.17578125,9.35546875,0.00390625,0.005859375,0.0,0.0081787109375,-0.123046875,-0.00244140625,0.99237060546875,1.634645760994536,-17.471805498426292,-0.5655881182478103
384,15.400058963999982,bno085,2.33984375,0.09765625,9.35546875,0.0,0.06640625,0.001953125,0.00823974609375,-0.1220703125,-0.0023193359375,0.99249267578125,1.6381060352682484,-17.359340041594727,-0.5494931999428693
385,15.440058553999734,bno085,1.87890625,0.13671875,9.35546875,0.001953125,-0.037109375,0.001953125,0.00823974609375,-0.1220703125,-0.0023193359375,0.99249267578125,1.6381060352682484,-17.359340041594727,-0.5494931999428693
386,15.48005527299938,bno085,2.4921875,0.17578125,9.35546875,0.0,-0.001953125,0.0,0.00823974609375,-0.1226806640625,-0.00225830078125,0.992431640625,1.6374899053737402,-17.430126684625563,-0.5437539927295796
387,15.520055047999449,bno085,2.26171875,0.13671875,9.35546875,0.0,-0.001953125,0.0,0.00823974609375,-0.12310791015625,-0.00225830078125,0.99237060546875,1.637962884237141,-17.47933854446933,-0.5448200485138794
388,15.560056118999455,bno085,2.30078125,0.13671875,9.3515625,0.0,-0.025390625,0.0,0.00823974609375,-0.123779296875,-0.00225830078125,0.99224853515625,1.6386822440381676,-17.55632105397988,-0.5464858405497184
389,15.600055077999968,bno085,2.6484375,0.17578125,9.35546875,0.00390625,-0.005859375,0.00390625,0.00830078125,-0.12420654296875,-0.002197265625,0.99224853515625,1.6451049232779749,-17.606495694616555,-0.5412119684483391
390,15.640056797999932,bno085,2.5703125,0.17578125,9.3515625,-0.00390625,0.015625,0.0,0.00830078125,-0.12420654296875,-0.002197265625,0.99224853515625,1.6451049232779749,-17.606495694616555,-0.5412119684483391
391,15.680058498000108,bno085,2.2265625,-0.0546875,9.35546875,-0.005859375,-0.029296875,0.0,0.00823974609375,-0.1239013671875,-0.002197265625,0.99224853515625,1.637505339789493,-17.570760901371298,-0.5395201157513331
392,15.720059735999712,bno085,2.41796875,0.17578125,9.3515625,-0.005859375,-0.029296875,0.0,0.0081787109375,-0.1243896484375,-0.00238037109375,0.9921875,1.6348438455024374,-17.62675421868159,-0.5616717116851275
393,15.760059991999697,bno085,2.37890625,0.17578125,9.3515625,-0.005859375,-0.033203125,-0.001953125,0.00811767578125,-0.12530517578125,-0.00238037109375,0.9920654296875,1.6286733095085706,-17.732401136086033,-0.563048699626468
394,15.800058267000168,bno085,2.41796875,0.17578125,9.3125,0.001953125,-0.0234375,0.001953125,0.00811767578125,-0.12603759765625,-0.00238037109375,0.99200439453125,1.629552483870349,-17.817425127185196,-0.5649000061666907
395,15.840060688999984,bno085,2.37890625,0.17578125,9.3125,0.0078125,-0.04296875,0.001953125,0.00811767578125,-0.12603759765625,-0.00238037109375,0.99200439453125,1.629552483870349,-17.817425127185196,-0.5649000061666907
396,15.880057259999376,bno085,2.5703125,0.17578125,9.3515625,0.001953125,-0.02734375,0.0,0.00823974609375,-0.1270751953125,-0.0023193359375,0.99188232421875,1.6438644183969446,-17.93749146297456,-0.5620886922380244
397,15.920058071999847,bno085,2.45703125,0.25,9.3125,0.001953125,-0.02734375,0.0,0.00823974609375,-0.1278076171875,-0.0023193359375,0.99176025390625,1.6446907841244087,-18.021698166270504,-0.5639283935514253
398,15.96005971700015,bno085,2.33984375,0.13671875,9.35546875,0.001953125,-0.03515625,-0.001953125,0.00836181640625,-0.1287841796875,-0.0023193359375,0.99163818359375,1.6603046129252748,-18.13451733198523,-0.5682989540905654
399,16.00006021399986,bno085,2.53125,0.13671875,9.3125,0.001953125,-0.056640625,0.001953125,0.00848388671875,-0.13018798828125,-0.00225830078125,0.991455078125,1.6750651157608103,-18.29679905530473,-0.5665005620312118
400,16.040064432999316,bno085,2.68359375,0.17578125,9.31640625,0.001953125,-0.015625,0.00390625,0.00848388671875,-0.13018798828125,-0.00225830078125,0.991455078125,1.6750651157608103,-18.29679905530473,-0.5665005620312118
401,16.08006054099951,bno085,2.45703125,0.13671875,9.31640625,0.005859375,-0.04296875,0.00390625,0.008544921875,-0.130859375,-0.0020751953125,0.99139404296875,1.6789727211964007,-18.375168733215595,-0.5472878392682449
402,16.120059207999475,bno085,2.53125,0.17578125,9.31640625,0.005859375,-0.04296875,0.00390625,0.008544921875,-0.13189697265625,-0.00201416015625,0.9912109375,1.678753046193959,-18.4945594414978,-0.542628909592943
403,16.160058948999904,bno085,2.5703125,0.17578125,9.3125,0.0,-0.048828125,0.00390625,0.00860595703125,-0.1331787109375,-0.001953125,0.99102783203125,1.6860945592747176,-18.642650042975845,-0.5395925158931922
404,16.200058929999614,bno085,2.4921875,0.17578125,9.31640625,0.0078125,-0.05859375,0.00390625,0.0086669921875,-0.1346435546875,-0.00189208984375,0.9908447265625,1.6936824151600256,-18.812327967518726,-0.5370603747069078
405,16.240057559999514,bno085,2.53125,0.17578125,9.28515625,0.01171875,-0.08984375,0.001953125,0.0086669921875,-0.1346435546875,-0.00189208984375,0.9908447265625,1.6936824151600256,-18.812327967518726,-0.5370603747069078
406,16.280057541999668,bno085,2.80078125,0.17578125,9.28515625,-0.001953125,-0.0546875,-0.009765625,0.0087890625,-0.13671875,-0.0018310546875,0.99053955078125,1.7092232657556405,-19.052065693838937,-0.5371384735952103
407,16.320059300999674,bno085,2.83984375,0.17578125,9.2421875,-0.001953125,-0.0546875,-0.009765625,0.00885009765625,-0.1380615234375,-0.0020751953125,0.9903564453125,1.7239023687793527,-19.20682254270069,-0.5710141436467319
408,16.360058819999722,bno085,2.72265625,0.21484375,9.31640625,0.013671875,-0.064453125,0.01953125,0.00872802734375,-0.1395263671875,-0.002685546875,0.99017333984375,1.725823603237702,-19.3752514129639,-0.6462390887795555
409,16.400057819999347,bno085,2.9140625,0.2890625,9.28515625,0.0,-0.0234375,0.00390625,0.0087890625,-0.140380859375,-0.00250244140625,0.99005126953125,1.7298409047266725,-19.47449488715525,-0.6275414176050504
410,16.44005802399988,bno085,2.6484375,0.21484375,9.28125,0.005859375,-0.03515625,0.0,0.0087890625,-0.140380859375,-0.00250244140625,0.99005126953125,1.7298409047266725,-19.47449488715525,-0.6275414176050504
411,16.480057838999528,bno085,2.83984375,0.17578125,9.2421875,0.00390625,-0.033203125,0.0078125,0.00885009765625,-0.14111328125,-0.00244140625,0.98992919921875,1.7365947209632089,-19.55908172486282,-0.623198274103846
412,16.520044486999723,bno085,2.83984375,0.17578125,9.28125,0.00390625,-0.033203125,0.0078125,0.00897216796875,-0.14215087890625,-0.0023193359375,0.98980712890625,1.7495986092036397,-19.67980152849916,-0.613413213552891
413,16.56005769100011,bno085,2.76171875,0.17578125,9.2421875,-0.00390625,-0.015625,-0.001953125,0.00897216796875,-0.142578125,-0.0023193359375,0.98974609375,1.750165336346865,-19.729258691835575,-0.6145686680888526
414,16.600057746999482,bno085,2.80078125,0.21484375,9.2421875,0.00390625,-0.0078125,-0.00390625,0.00897216796875,-0.142822265625,-0.00238037109375,0.98968505859375,1.7519474294889184,-19.756968093011935,-0.6225708163948325
415,16.640057431999594,bno085,2.68359375,0.17578125,9.28515625,-0.00390625,-0.009765625,-0.001953125,0.00897216796875,-0.142822265625,-0.00238037109375,0.98968505859375,1.7519474294889184,-19.756968093011935,-0.6225708163948325
416,16.680057173000023,bno085,2.68359375,0.17578125,9.24609375,0.0078125,-0.017578125,0.0,0.00897216796875,-0.14306640625,-0.00238037109375,0.98968505859375,1.7523143486407315,-19.785781388873197,-0.6232497051272138
417,16.720056895000198,bno085,2.875,0.21484375,9.28125,0.0078125,-0.017578125,0.0,0.00897216796875,-0.14349365234375,-0.00250244140625,0.9896240234375,1.7558741443544381,-19.83496324268259,-0.639123117770344
418,16.760058580000077,bno085,2.72265625,0.17578125,9.2421875,-0.005859375,0.005859375,0.0,0.0089111328125,-0.14337158203125,-0.00244140625,0.9896240234375,1.7469122174990188,-19.82072797803582,-0.6303601972775956
419,16.800057376999575,bno085,2.6484375,0.17578125,9.24609375,-0.001953125,-0.017578125,0.00390625,0.0089111328125,-0.1435546875,-0.00244140625,0.9896240234375,1.7471889717435205,-19.842342733593284,-0.6308694611787122
420,16.84005759899992,bno085,2.9140625,0.17578125,9.24609375,-0.005859375,0.00390625,0.0,0.0089111328125,-0.1435546875,-0.00244140625,0.9896240234375,1.7471889717435205,-19.842342733593284,-0.6308694611787122
421,16.880057784999735,bno085,2.68359375,0.17578125,9.24609375,0.001953125,0.0,0.0,0.0089111328125,-0.1435546875,-0.00244140625,0.9896240234375,1.7471889717435205,-19.842342733593284,-0.6308694611787122
422,16.920056876999297,bno085,2.80078125,0.17578125,9.24609375,0.001953125,0.0,0.0,0.00897216796875,-0.1435546875,-0.00244140625,0.9896240234375,1.7544738244069553,-19.842312743659967,-0.6319365433966253
423,16.960059154999726,bno085,2.76171875,0.17578125,9.28125,0.0,-0.00390625,-0.001953125,0.00897216796875,-0.14361572265625,-0.00244140625,0.98956298828125,1.7544968924932254,-19.848555710831473,-0.6320770581962207
424,17.00005671100007,bno085,2.76171875,0.17578125,9.28125,0.0,0.0078125,0.0,0.0089111328125,-0.1435546875,-0.00244140625,0.9896240234375,1.7471889717435205,-19.842342733593284,-0.6308694611787122
425,17.040058747999865,bno085,2.76171875,0.17578125,9.28125,-0.001953125,0.009765625,-0.001953125,0.0089111328125,-0.1435546875,-0.00244140625,0.9896240234375,1.7471889717435205,-19.842342733593284,-0.6308694611787122
426,17.08005965599932,bno085,2.72265625,0.17578125,9.2421875,-0.001953125,-0.00390625,0.001953125,0.00885009765625,-0.14337158203125,-0.00250244140625,0.9896240234375,1.7411201556991518,-19.82061449835455,-0.6366508330057579
427,17.12005738100015,bno085,2.6484375,0.17578125,9.28515625,-0.001953125,-0.00390625,0.001953125,0.00885009765625,-0.14337158203125,-0.00244140625,0.9896240234375,1.7396282755614474,-19.820757937807738,-0.6292946184474111
428,17.16005888499967,bno085,2.9140625,0.17578125,9.28515625,0.0,-0.01171875,0.0,0.0089111328125,-0.14373779296875,-0.00238037109375,0.98956298828125,1.745901973926778,-19.863140286713023,-0.6239914286597181
429,17.200058147000163,bno085,2.72265625,0.17578125,9.2421875,0.0,0.015625,0.001953125,0.00885009765625,-0.14349365234375,-0.00238037109375,0.9896240234375,1.7383192150215434,-19.83531095247859,-0.6222762257990648
430,17.240057168999556,bno085,2.6484375,0.17578125,9.24609375,0.00390625,-0.0078125,0.001953125,0.00885009765625,-0.14349365234375,-0.00238037109375,0.9896240234375,1.7383192150215434,-19.83531095247859,-0.6222762257990648
431,17.280059597999752,bno085,2.875,0.17578125,9.28515625,-0.00390625,-0.00390625,0.001953125,0.0089111328125,-0.14361572265625,-0.0023193359375,0.9896240234375,1.7442933572366999,-19.8498357760288,-0.6163242153615449
432,17.320059286999822,bno085,2.76171875,0.21484375,9.24609375,-0.00390625,-0.00390625,0.001953125,0.00885009765625,-0.14373779296875,-0.00225830078125,0.98956298828125,1.7356266977527004,-19.863456489168204,-0.6082073705102694
433,17.36005888299951,bno085,2.72265625,0.17578125,9.28125,-0.005859375,0.001953125,-0.001953125,0.0087890625,-0.14361572265625,-0.00225830078125,0.9896240234375,1.728229074689289,-19.850036775503575,-0.6068314700054384
434,17.400059237999812,bno085,2.953125,0.21484375,9.2421875,0.0,0.029296875,0.0,0.00872802734375,-0.14300537109375,-0.00225830078125,0.98968505859375,1.7201144368346768,-19.778980267930425,-0.6041201485367782
435,17.44005901899982,bno085,2.5703125,0.17578125,9.28125,0.0,0.0234375,-0.001953125,0.00872802734375,-0.14300537109375,-0.00225830078125,0.98968505859375,1.7201144368346768,-19.778980267930425,-0.6041201485367782
436,17.480058577999444,bno085,2.72265625,0.17578125,9.2421875,-0.00390625,0.001953125,-0.00390625,0.0086669921875,-0.14239501953125,-0.00225830078125,0.98974609375,1.712008281874794,-19.70793924451528,-0.6014211508631077
437,17.52005700799964,bno085,2.76171875,0.17578125,9.28125,-0.00390625,0.001953125,-0.00390625,0.0086669921875,-0.142333984375,-0.00238037109375,0.98974609375,1.7148857447569914,-19.70045402438174,-0.6159580392145391
438,17.56005875199935,bno085,2.6484375,0.17578125,9.28515625,0.0,0.0,0.0,0.0086669921875,-0.14239501953125,-0.00238037109375,0.98974609375,1.7149756578144018,-19.707655570485212,-0.6161250308272247
439,17.600059828999292,bno085,2.83984375,0.17578125,9.2421875,-0.001953125,-0.0078125,0.0,0.0086669921875,-0.14263916015625,-0.00238037109375,0.98974609375,1.715335660778758,-19.73646405757303,-0.6167932422772004
440,17.640057350999996,bno085,2.68359375,0.17578125,9.28515625,0.0,0.001953125,0.0,0.0086669921875,-0.14263916015625,-0.00238037109375,0.98974609375,1.715335660778758,-19.73646405757303,-0.6167932422772004
441,17.680059798999537,bno085,2.76171875,0.17578125,9.28125,0.00390625,0.013671875,0.0,0.0086669921875,-0.142578125,-0.00238037109375,0.98974609375,1.7152456074096023,-19.729261590238835,-0.6166261526424697
442,17.720057783999437,bno085,2.72265625,0.21484375,9.28515625,0.00390625,0.013671875,0.0,0.00872802734375,-0.142333984375,-0.00238037109375,0.98974609375,1.7221655169205818,-19.70042465865056,-0.6170151177236163
443,17.76006160199995,bno085,2.5703125,0.17578125,9.28125,-0.005859375,0.013671875,-0.00390625,0.00872802734375,-0.14215087890625,-0.00238037109375,0.98980712890625,1.7219626905367527,-19.67977487512633,-0.6165419607226836
444,17.800059919999512,bno085,2.72265625,0.17578125,9.28125,0.001953125,-0.00390625,-0.001953125,0.00872802734375,-0.14227294921875,-0.00244140625,0.98980712890625,1.7236255967389476,-19.69403517944009,-0.6242285716891972
445,17.84005881199937,bno085,2.76171875,0.17578125,9.28125,0.001953125,0.005859375,0.0,0.00872802734375,-0.14227294921875,-0.00244140625,0.98980712890625,1.7236255967389476,-19.69403517944009,-0.6242285716891972
446,17.880059963999884,bno085,2.609375,0.17578125,9.28515625,0.001953125,-0.015625,0.0,0.00872802734375,-0.14215087890625,-0.00244140625,0.98980712890625,1.7234443110466384,-19.67963251884252,-0.6238930473538025
447,17.92005765199974,bno085,2.76171875,0.17578125,9.28125,0.001953125,-0.015625,0.0,0.00872802734375,-0.1424560546875,-0.00244140625,0.98974609375,1.7238301524111512,-19.714685580822593,-0.6247023787197546
448,17.960057915000107,bno085,2.83984375,0.17578125,9.2421875,-0.00390625,0.00390625,0.0,0.00872802734375,-0.1424560546875,-0.00244140625,0.98974609375,1.7238301524111512,-19.714685580822593,-0.6247023787197546
449,18.00005869599954,bno085,2.609375,0.17578125,9.28515625,0.00390625,-0.009765625,-0.001953125,0.00872802734375,-0.14251708984375,-0.00244140625,0.98974609375,1.7239209500793589,-19.721887573059707,-0.6248702455445786
450,18.040058810999653,bno085,2.72265625,0.17578125,9.2421875,0.00390625,-0.017578125,0.0,0.00872802734375,-0.14251708984375,-0.00244140625,0.98974609375,1.7239209500793589,-19.721887573059707,-0.6248702455445786
451,18.080059258999427,bno085,2.76171875,0.17578125,9.28125,0.0,-0.005859375,0.0,0.0087890625,-0.1429443359375,-0.00238037109375,0.98968505859375,1.7302838472794393,-19.771462651229932,-0.6197239690097165
452,18.12005713599956,bno085,2.80078125,0.17578125,9.24609375,0.0,-0.005859375,0.0,0.0087890625,-0.14312744140625,-0.00238037109375,0.98968505859375,1.7305565192640622,-19.793073733280384,-0.6202287397932815
453,18.160058308999396,bno085,2.68359375,0.17578125,9.28515625,0.0,0.01171875,0.0,0.00885009765625,-0.14288330078125,-0.00238037109375,0.98968505859375,1.7374750386163365,-19.764229976054498,-0.6206173419121852
454,18.200060462999318,bno085,2.80078125,0.17578125,9.24609375,-0.001953125,0.01171875,-0.001953125,0.00885009765625,-0.142578125,-0.00238037109375,0.98974609375,1.7370885237053086,-19.729173380548897,-0.6198033902096809
455,18.240057784999408,bno085,2.83984375,0.21484375,9.28515625,-0.005859375,0.03515625,0.0,0.00885009765625,-0.142578125,-0.00238037109375,0.98974609375,1.7370885237053086,-19.729173380548897,-0.6198033902096809
456,18.28005990299971,bno085,2.83984375,0.17578125,9.28125,-0.001953125,0.037109375,-0.001953125,0.0087890625,-0.141845703125,-0.00238037109375,0.9898681640625,1.7288585942974906,-19.64469446371293,-0.6167874250932656
457,18.32006061299944,bno085,2.9140625,0.21484375,9.28125,-0.001953125,0.037109375,-0.001953125,0.0087890625,-0.14105224609375,-0.0023193359375,0.989990234375,1.726352360922251,-19.553145614560716,-0.6073196223804601
458,18.360059526999976,bno085,2.68359375,0.17578125,9.28515625,0.0,0.083984375,0.00390625,0.0086669921875,-0.13916015625,-0.00225830078125,0.990234375,1.7078808030800854,-19.334052355652954,-0.5928616878488497
459,18.40005975599979,bno085,2.5703125,0.17578125,9.3125,-0.001953125,0.07421875,0.0078125,0.00860595703125,-0.137451171875,-0.00213623046875,0.990478515625,1.6955763383782252,-19.136755190657905,-0.5726777577450403
460,18.440058559000136,bno085,2.76171875,0.17578125,9.3125,0.0,0.083984375,0.01171875,0.00860595703125,-0.137451171875,-0.00213623046875,0.990478515625,1.6955763383782252,-19.136755190657905,-0.5726777577450403
461,18.480056398999295,bno085,2.53125,0.13671875,9.28125,-0.00390625,0.0625,0.001953125,0.008544921875,-0.13555908203125,-0.00189208984375,0.99072265625,1.6802660066075856,-18.918276612571425,-0.5374336828837647
462,18.520055256999512,bno085,2.45703125,0.17578125,9.3125,-0.00390625,0.0625,0.001953125,0.00836181640625,-0.13385009765625,-0.00177001953125,0.990966796875,1.653687473634495,-18.721211768125013,-0.5154353378888925
463,18.560056153000005,bno085,2.5703125,0.17578125,9.3125,-0.0078125,0.080078125,0.009765625,0.0081787109375,-0.132080078125,-0.0015869140625,0.9912109375,1.6257519243586556,-18.517188433337218,-0.4860962111631025
464,18.600055769999926,bno085,2.33984375,0.13671875,9.35546875,-0.00390625,0.06640625,0.001953125,0.00799560546875,-0.1302490234375,-0.00146484375,0.991455078125,1.5992770860944352,-18.305943479400632,-0.4640501461293728
465,18.640058166000017,bno085,2.5703125,0.17578125,9.3125,-0.00390625,0.07421875,0.0078125,0.00799560546875,-0.1302490234375,-0.00146484375,0.991455078125,1.5992770860944352,-18.305943479400632,-0.4640501461293728
466,18.680055245999938,bno085,2.5703125,0.13671875,9.35546875,-0.009765625,0.091796875,0.001953125,0.00787353515625,-0.12860107421875,-0.0013427734375,0.99163818359375,1.5803083237107307,-18.115392778542116,-0.44351315988123863
467,18.7200553269995,bno085,2.6484375,0.13671875,9.3515625,-0.009765625,0.091796875,0.001953125,0.00762939453125,-0.12652587890625,-0.0013427734375,0.991943359375,1.5493381067515408,-17.8763044013755,-0.4347843855309736
468,18.76005674099997,bno085,2.609375,0.17578125,9.35546875,-0.0078125,0.142578125,0.0078125,0.00732421875,-0.1231689453125,-0.00128173828125,0.99237060546875,1.50864333142932,-17.488959528596716,-0.41501525394313293
469,18.800056839999343,bno085,2.33984375,0.13671875,9.390625,-0.009765625,0.140625,-0.001953125,0.00714111328125,-0.11944580078125,-0.00128173828125,0.9927978515625,1.4835229279129198,-17.05890624939632,-0.4037504829556405
470,18.84005505099958,bno085,2.26171875,0.05859375,9.39453125,0.0,0.146484375,0.001953125,0.00714111328125,-0.11944580078125,-0.00128173828125,0.9927978515625,1.4835229279129198,-17.05890624939632,-0.4037504829556405
471,18.8800549460002,bno085,2.26171875,0.09765625,9.390625,0.00390625,0.142578125,0.00390625,0.007080078125,-0.1158447265625,-0.001220703125,0.99322509765625,1.4718079241292972,-16.643602461994732,-0.3874401114883784
472,18.920058285999403,bno085,1.87890625,0.13671875,9.4296875,0.00390625,0.142578125,0.00390625,0.0072021484375,-0.112548828125,-0.00115966796875,0.99365234375,1.482094564582093,-16.264206541962057,-0.3744159492117693
473,18.960056330000043,bno085,1.87890625,0.09765625,9.4296875,-0.01171875,0.060546875,-0.015625,0.0072021484375,-0.11077880859375,-0.00128173828125,0.99383544921875,1.4830196976850714,-16.0596805919575,-0.38487565242902455
474,19.000055946999964,bno085,2.0703125,0.09765625,9.4296875,0.0,0.029296875,0.0,0.0072021484375,-0.11016845703125,-0.0013427734375,0.993896484375,1.4837079765310845,-15.98910884296992,-0.39072286749006807
475,19.040055138999378,bno085,2.109375,0.09765625,9.43359375,-0.001953125,0.0234375,-0.00390625,0.0072021484375,-0.11016845703125,-0.0013427734375,0.993896484375,1.4837079765310845,-15.98910884296992,-0.39072286749006807
476,19.080060330999913,bno085,2.1484375,0.21484375,9.43359375,-0.00390625,0.068359375,0.0078125,0.00714111328125,-0.10968017578125,-0.00146484375,0.99395751953125,1.4785535863708759,-15.932674557939265,-0.4032791081991118
477,19.120055636999496,bno085,1.99609375,0.13671875,9.4296875,-0.00390625,0.068359375,0.0078125,0.007080078125,-0.10833740234375,-0.0013427734375,0.99407958984375,1.4677758350349401,-15.777874067491753,-0.3850020937796741
478,19.160056887999417,bno085,1.61328125,0.44140625,9.390625,-0.005859375,0.0703125,0.005859375,0.00677490234375,-0.1068115234375,-0.00030517578125,0.9942626953125,1.4103710668303526,-15.604442765917591,-0.25498728113865915
479,19.200056359999508,bno085,2.76171875,0.17578125,9.5078125,-0.03125,0.111328125,0.017578125,0.005615234375,-0.10498046875,0.00067138671875,0.99444580078125,1.254207630220083,-15.395350972253866,-0.12118557418486905
480,19.2400582399996,bno085,1.65234375,0.44140625,9.47265625,0.00390625,0.134765625,-0.00390625,0.00567626953125,-0.10162353515625,0.0006103515625,0.99481201171875,1.2608521016195946,-15.008743838038166,-0.12262442222737353
481,19.280056027999308,bno085,1.23046875,-0.32421875,9.55078125,0.078125,0.0859375,0.12109375,0.00567626953125,-0.10162353515625,0.0006103515625,0.99481201171875,1.2608521016195946,-15.008743838038166,-0.12262442222737353
482,19.32005638999999,bno085,2.83984375,0.51953125,9.28125,0.078125,0.0859375,0.12109375,0.005859375,-0.09906005859375,-0.00054931640625,0.99505615234375,1.3025561235954966,-14.711165540794612,-0.25649519443336877
483,19.3600583439993,bno085,1.6875,0.09765625,9.47265625,-0.017578125,0.09765625,-0.01171875,0.00567626953125,-0.0963134765625,-0.00067138671875,0.995361328125,1.2816576083921536,-14.395154593028373,-0.2632537027489105
484,19.40005933500015,bno085,2.1484375,0.13671875,9.46875,-0.00390625,0.083984375,0.0,0.0054931640625,-0.09429931640625,-0.000732421875,0.99554443359375,1.2600888423770455,-14.16313917248274,-0.264379371527075
485,19.440058307999607,bno085,1.87890625,0.13671875,9.51171875,-0.01171875,0.146484375,0.001953125,0.0054931640625,-0.09429931640625,-0.000732421875,0.99554443359375,1.2600888423770455,-14.16313917248274,-0.264379371527075
486,19.4800570769994,bno085,1.8046875,0.09765625,9.5078125,-0.009765625,0.169921875,0.001953125,0.00531005859375,-0.09088134765625,-0.00054931640625,0.995849609375,1.2333951549291082,-13.770070389508636,-0.23418548581763068
487,19.520055234999745,bno085,1.65234375,0.17578125,9.5078125,-0.01171875,0.1875,0.01171875,0.005126953125,-0.08660888671875,-0.00048828125,0.9962158203125,1.2085910710315437,-13.278607445333698,-0.21693537553078399
488,19.560056966999582,bno085,1.3828125,0.05859375,9.5078125,-0.01171875,0.1875,0.01171875,0.00482177734375,-0.0821533203125,-0.000244140625,0.99658203125,1.1666943889577588,-12.766658746536448,-0.17698632833120323
489,19.600055625000095,bno085,1.34375,0.09765625,9.546875,-0.0078125,0.134765625,0.0078125,0.004638671875,-0.07867431640625,0.0,0.99688720703125,1.1398752972535966,-12.367423665860704,-0.14037406568075472
490,19.640056967999953,bno085,1.0,0.3671875,9.5078125,-0.013671875,0.111328125,0.169921875,0.004150390625,-0.0760498046875,0.0010986328125,0.9970703125,1.0648011340563184,-12.067516390106377,-0.0029625422877911766
491,19.68005897799958,bno085,1.57421875,-0.16796875,9.58984375,-0.005859375,0.087890625,-0.001953125,0.004150390625,-0.0760498046875,0.0010986328125,0.9970703125,1.0648011340563184,-12.067516390106377,-0.0029625422877911766
492,19.720056746999944,bno085,1.3046875,0.0234375,9.546875,-0.005859375,0.087890625,-0.001953125,0.0040283203125,-0.07379150390625,0.00103759765625,0.99725341796875,1.0509993081805402,-11.80804450631181,-0.00522407129475754
493,19.76006162700014,bno085,1.34375,0.13671875,9.58984375,-0.01171875,0.06640625,-0.009765625,0.00390625,-0.07196044921875,0.0009765625,0.99737548828125,1.0372985088357443,-11.597485641138626,-0.008256639859213204
494,19.80005715599964,bno085,1.26953125,0.05859375,9.55078125,-0.001953125,0.123046875,-0.001953125,0.00384521484375,-0.0693359375,0.00079345703125,0.99755859375,1.0322964816943379,-11.295700239035849,-0.02475733163130397
495,19.840057794999666,bno085,1.11328125,0.44140625,9.66796875,-0.033203125,0.048828125,0.109375,0.00384521484375,-0.0693359375,0.00079345703125,0.99755859375,1.0322964816943379,-11.295700239035849,-0.02475733163130397
496,19.88005998999961,bno085,2.0703125,0.17578125,9.625,0.00390625,0.216796875,-0.01953125,0.00421142578125,-0.06683349609375,-0.00115966796875,0.99774169921875,1.1025435693444636,-11.00511511287328,-0.2509463777444313
497,19.920058851999784,bno085,1.19140625,-0.0546875,9.5859375,-0.00390625,0.228515625,0.009765625,0.00396728515625,-0.06182861328125,-0.00140380859375,0.998046875,1.075241191656126,-10.430000556677022,-0.26874467475592156
498,19.960058416999345,bno085,1.0,0.17578125,9.5859375,-0.00390625,0.228515625,0.009765625,0.003662109375,-0.056396484375,-0.0013427734375,0.9984130859375,1.0365187246894971,-9.806977807744103,-0.2502524928824195
499,20.000055482999414,bno085,0.80859375,-0.0546875,9.58984375,0.0078125,0.185546875,-0.01171875,0.00360107421875,-0.05181884765625,-0.001708984375,0.9986572265625,1.032058721367238,-9.2810934779907,-0.28462729335389514
500,20.040055159000076,bno085,0.65625,0.0234375,9.5859375,0.0078125,0.09765625,0.0,0.00372314453125,-0.0491943359375,-0.001708984375,0.998779296875,1.0448642245069941,-8.979900673153253,-0.2809012121185406
501,20.080056205999426,bno085,0.921875,0.09765625,9.5859375,0.0,0.078125,0.001953125,0.00372314453125,-0.0491943359375,-0.001708984375,0.998779296875,1.0448642245069941,-8.979900673153253,-0.2809012121185406
502,20.120055626000067,bno085,1.0390625,0.05859375,9.5859375,0.0,0.078125,0.001953125,0.0037841796875,-0.04736328125,-0.00164794921875,0.99884033203125,1.050267726583509,-8.769791979238628,-0.27105878662213034
503,20.160055898999417,bno085,0.76953125,0.0234375,9.625,0.001953125,0.107421875,0.00390625,0.0037841796875,-0.04510498046875,-0.0015869140625,0.99896240234375,1.0484984213358166,-8.510958855868825,-0.26016898119722964
504,20.200055892999444,bno085,1.19140625,0.0234375,9.62890625,-0.00390625,0.087890625,-0.001953125,0.00372314453125,-0.04302978515625,-0.0015869140625,0.99908447265625,1.0405515576114495,-8.273120300798379,-0.2563640410674078
505,20.240055239999492,bno085,0.921875,0.0234375,9.62890625,-0.005859375,0.16015625,-0.00390625,0.00372314453125,-0.04302978515625,-0.0015869140625,0.99908447265625,1.0405515576114495,-8.273120300798379,-0.2563640410674078
506,20.280055381999773,bno085,0.69140625,0.0234375,9.62890625,0.001953125,0.15234375,0.001953125,0.00360107421875,-0.039306640625,-0.001708984375,0.99920654296875,1.0262418736771735,-7.845844070629779,-0.2636602470474211
507,20.32005583999944,bno085,0.42578125,0.09765625,9.62890625,-0.00390625,0.1015625,0.009765625,0.00360107421875,-0.03558349609375,-0.001708984375,0.99932861328125,1.0246259645378775,-7.41888269999635,-0.25746947816999766
508,20.360056574999362,bno085,0.34765625,0.09765625,9.625,-0.00390625,0.1015625,0.009765625,0.00347900390625,-0.03289794921875,-0.00146484375,0.99945068359375,1.0069061531836652,-7.1115359596132315,-0.22438884996478584
509,20.400059255000087,bno085,0.234375,0.05859375,9.625,-0.001953125,0.029296875,0.00390625,0.00347900390625,-0.03204345703125,-0.00140380859375,0.99945068359375,1.0059326274348726,-7.013572837659729,-0.21594476127036855
510,20.440058731000136,bno085,0.42578125,0.09765625,9.62890625,0.001953125,-0.029296875,-0.001953125,0.00347900390625,-0.03204345703125,-0.00140380859375,0.99945068359375,1.0059326274348726,-7.013572837659729,-0.21594476127036855
511,20.480055483999422,bno085,0.69140625,0.05859375,9.62890625,0.001953125,0.0,-0.00390625,0.0035400390625,-0.03277587890625,-0.00146484375,0.99945068359375,1.0138766973669067,-7.097513913838437,-0.22441941183500588
512,20.52005583099981,bno085,0.76953125,0.05859375,9.6640625,0.001953125,0.0,-0.00390625,0.00360107421875,-0.03289794921875,-0.00146484375,0.99945068359375,1.0209444257689013,-7.1115105829938505,-0.2248523560982458
513,20.560056213999815,bno085,0.84765625,0.0234375,9.62890625,0.013671875,0.03515625,-0.001953125,0.00372314453125,-0.0321044921875,-0.00146484375,0.99945068359375,1.0346648652587815,-7.020428527649876,-0.2239916642450193
514,20.60005748599997,bno085,0.69140625,0.21484375,9.625,0.0078125,0.037109375,0.001953125,0.00396728515625,-0.03118896484375,-0.00140380859375,0.99951171875,1.0617681709323725,-6.915643130478053,-0.2163148909886438
515,20.6400551480001,bno085,0.65625,0.2890625,9.6640625,-0.01171875,0.0859375,0.013671875,0.00396728515625,-0.03118896484375,-0.00140380859375,0.99951171875,1.0617681709323725,-6.915643130478053,-0.2163148909886438
516,20.680055604999325,bno085,0.30859375,0.6328125,9.5078125,-0.080078125,0.060546875,0.05859375,0.0037841796875,-0.02935791015625,-0.00115966796875,0.99957275390625,1.0375719109009185,-6.706198338908455,-0.18445453310381468
517,20.720055024999965,bno085,0.921875,-0.4765625,9.7734375,-0.080078125,0.060546875,0.05859375,0.00244140625,-0.027099609375,0.0013427734375,0.9996337890625,0.8578966664472514,-6.451205566196681,0.11193730940891367
518,20.760057241999675,bno085,0.69140625,-0.58984375,9.62890625,0.02734375,0.134765625,0.00390625,0.0029296875,-0.02386474609375,0.00146484375,0.99969482421875,0.9127800018480317,-6.0806103875870745,0.1293151185729156
519,20.800058570000147,bno085,0.2734375,0.17578125,9.625,-0.037109375,0.0234375,-0.009765625,0.00299072265625,-0.0225830078125,0.00146484375,0.999755859375,0.9198039334583985,-5.93379856773523,0.13107635673517062
520,20.840055693999602,bno085,0.34765625,0.0234375,9.62890625,-0.005859375,0.005859375,0.001953125,0.00299072265625,-0.0225830078125,0.00146484375,0.999755859375,0.9198039334583985,-5.93379856773523,0.13107635673517062
521,20.88005648499984,bno085,0.34765625,0.09765625,9.625,-0.00390625,0.0,0.001953125,0.00311279296875,-0.02203369140625,0.00146484375,0.999755859375,0.9338197858516321,-5.870826699158514,0.131589391894795
522,20.920055812999635,bno085,0.15625,0.2890625,9.6640625,-0.00390625,0.0,0.001953125,0.00311279296875,-0.02203369140625,0.00146484375,0.999755859375,0.9338197858516321,-5.870826699158514,0.131589391894795
523,20.960056029999578,bno085,0.46484375,0.17578125,9.66796875,-0.0234375,-0.03515625,0.00390625,0.0025634765625,-0.0225830078125,0.00152587890625,0.999755859375,0.8701726382390861,-5.933826763147826,0.13921817980294512
524,21.000059171999965,bno085,0.84765625,-0.58984375,9.62890625,0.0078125,0.021484375,0.005859375,0.00244140625,-0.02252197265625,0.0015869140625,0.999755859375,0.8555873728441086,-5.9268974631372355,0.1466529449104596
525,21.04005811099978,bno085,0.46484375,0.0234375,9.66796875,0.0,-0.01171875,0.0,0.00244140625,-0.02276611328125,0.0015869140625,0.999755859375,0.8555823013503384,-5.954893693190905,0.14630336944792915
526,21.08005951299947,bno085,0.46484375,0.05859375,9.62890625,0.00390625,0.005859375,0.0,0.00244140625,-0.02276611328125,0.0015869140625,0.999755859375,0.8555823013503384,-5.954893693190905,0.14630336944792915
527,21.12005756599956,bno085,0.42578125,0.05859375,9.6640625,0.0,0.015625,-0.001953125,0.0025634765625,-0.02264404296875,0.0015869140625,0.999755859375,0.8696027861664377,-5.94091451389936,0.1461594885172235
528,21.16005947099984,bno085,0.46484375,0.09765625,9.6640625,0.0,0.015625,-0.001953125,0.00262451171875,-0.02203369140625,0.001708984375,0.999755859375,0.875493592510893,-5.87111361792304,0.16094456597915133
529,21.200057209999613,bno085,0.38671875,0.2890625,9.62890625,0.04296875,0.029296875,-0.142578125,0.00286865234375,-0.02099609375,0.0010986328125,0.999755859375,0.9091336803764033,-5.751273973101367,0.09158596657957709
530,21.240055540999492,bno085,0.00390625,0.05859375,9.69921875,-0.005859375,-0.044921875,-0.01171875,0.0029296875,-0.0216064453125,0.0009765625,0.999755859375,0.9172885806900747,-5.821078667574511,0.07646673980573046
531,21.280056335000154,bno085,0.80859375,0.13671875,9.62890625,0.0,0.05859375,0.0,0.0029296875,-0.0216064453125,0.0009765625,0.999755859375,0.9172885806900747,-5.821078667574511,0.07646673980573046
532,21.32005616599963,bno085,0.2734375,-0.015625,9.66796875,-0.00390625,0.041015625,0.00390625,0.0029296875,-0.02069091796875,0.0009765625,0.999755859375,0.9172396535750293,-5.7161072054588455,0.07784238019578846
533,21.36005571899932,bno085,0.42578125,0.05859375,9.6640625,-0.00390625,0.041015625,0.00390625,0.0029296875,-0.01959228515625,0.00103759765625,0.99981689453125,0.9166579895049813,-5.5903805725365014,0.08652399611591796
534,21.400058753999474,bno085,0.04296875,0.05859375,9.66796875,-0.00390625,0.001953125,0.001953125,0.0028076171875,-0.01904296875,0.00103759765625,0.99981689453125,0.9026245705693161,-5.527391366183989,0.0876161535555534
535,21.440059548000136,bno085,0.234375,0.05859375,9.6640625,-0.00390625,0.025390625,0.00390625,0.00274658203125,-0.01849365234375,0.00115966796875,0.99981689453125,0.8945206169978636,-5.4645912069408435,0.10261117732931514
536,21.48005928600014,bno085,0.38671875,0.05859375,9.62890625,-0.00390625,0.021484375,-0.00390625,0.00274658203125,-0.01849365234375,0.00115966796875,0.99981689453125,0.8945206169978636,-5.4645912069408435,0.10261117732931514
537,21.520064005999302,bno085,0.234375,0.05859375,9.625,-0.001953125,0.013671875,0.001953125,0.002685546875,-0.01800537109375,0.0010986328125,0.99981689453125,0.8880427157683409,-5.408518980059468,0.09643523723503061
538,21.560058188999392,bno085,0.42578125,0.05859375,9.625,-0.001953125,0.013671875,0.001953125,0.002685546875,-0.01763916015625,0.0010986328125,0.99981689453125,0.8880341904852636,-5.366538599601755,0.09697391359057564
539,21.60005833499963,bno085,0.234375,0.05859375,9.6640625,0.0,0.02734375,0.0,0.002685546875,-0.01690673828125,0.00115966796875,0.9998779296875,0.8875087949922261,-5.282789149078311,0.10508027048273225
540,21.64005757399991,bno085,0.2734375,0.05859375,9.6640625,-0.00390625,0.015625,0.001953125,0.00262451171875,-0.0164794921875,0.00115966796875,0.9998779296875,0.880499677756048,-5.233805918808465,0.10582395280942786
541,21.68005764499958,bno085,0.46484375,0.0234375,9.66796875,0.001953125,0.0625,0.001953125,0.00262451171875,-0.0164794921875,0.00115966796875,0.9998779296875,0.880499677756048,-5.233805918808465,0.10582395280942786
542,21.7200574769995,bno085,0.234375,0.05859375,9.6640625,0.00390625,0.015625,0.005859375,0.00262451171875,-0.015380859375,0.001220703125,0.9998779296875,0.8799728154534554,-5.107962397199022,0.11445125382901686
543,21.760060751999845,bno085,0.1953125,0.09765625,9.6640625,0.00390625,0.015625,0.005859375,0.00262451171875,-0.01495361328125,0.00128173828125,0.9998779296875,0.8794589205594842,-5.059080110928254,0.12209559938571289
544,21.80005773099947,bno085,0.38671875,0.0234375,9.66796875,0.0,0.03515625,0.00390625,0.00262451171875,-0.01434326171875,0.00128173828125,0.9998779296875,0.879465111760894,-4.989122884773566,0.12298663561671326
545,21.840060802999687,bno085,0.30859375,0.0234375,9.625,0.001953125,0.009765625,0.0,0.002685546875,-0.01385498046875,0.00128173828125,0.9998779296875,0.8864727394145704,-4.933166857808878,0.12360211375645554
546,21.88005702299961,bno085,0.2734375,0.09765625,9.66796875,-0.001953125,0.0390625,0.0,0.002685546875,-0.01385498046875,0.00128173828125,0.9998779296875,0.8864727394145704,-4.933166857808878,0.12360211375645554
547,21.920056649999424,bno085,0.2734375,0.0234375,9.6640625,-0.005859375,0.041015625,-0.001953125,0.00262451171875,-0.01275634765625,0.0013427734375,0.99993896484375,0.8790064285072378,-4.807423768939199,0.13232927541980638
548,21.960056943999916,bno085,0.1171875,0.05859375,9.6640625,-0.005859375,0.041015625,-0.001953125,0.0025634765625,-0.01171875,0.00140380859375,0.99993896484375,0.8715410698175,-4.6885847648894226,0.14094191073718776
549,22.00005621999935,bno085,0.08203125,0.05859375,9.66796875,-0.005859375,0.044921875,0.001953125,0.00244140625,-0.0107421875,0.00140380859375,0.99993896484375,0.8575776581463298,-4.576647952999442,0.14250955607677168
550,22.040057051000076,bno085,0.15625,0.05859375,9.6640625,-0.00390625,0.025390625,0.0,0.00238037109375,-0.01007080078125,0.00140380859375,0.99993896484375,0.850606081339597,-4.499697401740018,0.14354492208482714
551,22.08005867799966,bno085,0.15625,0.05859375,9.6640625,-0.001953125,0.021484375,0.0,0.00238037109375,-0.01007080078125,0.00140380859375,0.99993896484375,0.850606081339597,-4.499697401740018,0.14354492208482714
552,22.120056641999327,bno085,0.1953125,0.05859375,9.62890625,0.001953125,0.025390625,-0.001953125,0.0023193359375,-0.009521484375,0.00146484375,0.99993896484375,0.8431553889535444,-4.4368245969882505,0.1514114431748792
553,22.160056568999607,bno085,0.1953125,0.05859375,9.66796875,0.001953125,0.025390625,-0.001953125,0.00238037109375,-0.00897216796875,0.00146484375,0.99993896484375,0.8501834594063369,-4.373884907550463,0.15212941634395855
554,22.200056198999846,bno085,0.1171875,0.05859375,9.6640625,0.0,0.041015625,0.0,0.00238037109375,-0.008056640625,0.00146484375,0.99993896484375,0.8502342829899476,-4.268972192222413,0.15343765470396997
555,22.240057736999916,bno085,0.30859375,0.0234375,9.6640625,-0.00390625,-0.015625,0.0,0.0023193359375,-0.00799560546875,0.00146484375,0.99993896484375,0.843239833027317,-4.2619684440459675,0.1535810543636091
556,22.280058757000006,bno085,0.2734375,0.05859375,9.625,-0.00390625,0.04296875,0.0,0.0023193359375,-0.00799560546875,0.00146484375,0.99993896484375,0.843239833027317,-4.2619684440459675,0.1535810543636091
557,22.320056998999462,bno085,0.08203125,0.05859375,9.66796875,0.001953125,0.048828125,0.0,0.00225830078125,-0.00701904296875,0.00152587890625,1.0,0.8358575868492245,-4.150190937779915,0.16204096282029135
558,22.36005757299972,bno085,0.08203125,0.05859375,9.66796875,0.001953125,0.048828125,0.0,0.00225830078125,-0.0057373046875,0.00152587890625,1.0,0.8359485632181878,-4.003313318117852,0.16385389254585103
559,22.400058815000193,bno085,-0.07421875,0.0234375,9.66796875,-0.005859375,0.0546875,0.0,0.00225830078125,-0.00433349609375,0.00152587890625,1.0,0.8360544725542163,-3.842452286157701,0.16583999732752291
560,22.44005887200001,bno085,0.08203125,0.05859375,9.66796875,-0.0078125,0.01953125,-0.001953125,0.002197265625,-0.00360107421875,0.0015869140625,1.0,0.8286822847258475,-3.758601904540493,0.17391051333879204
561,22.480059279999296,bno085,0.04296875,0.05859375,9.66796875,0.0,0.021484375,0.00390625,0.002197265625,-0.00360107421875,0.0015869140625,1.0,0.8286822847258475,-3.758601904540493,0.17391051333879204
562,22.520057447999534,bno085,0.04296875,0.05859375,9.66796875,-0.001953125,0.01953125,0.0,0.00213623046875,-0.00286865234375,0.0015869140625,1.0,0.821751981562882,-3.6746659808579785,0.1749615501950381
563,22.560057097000026,bno085,0.1953125,0.0234375,9.66796875,-0.001953125,0.01953125,0.0,0.00213623046875,-0.002197265625,0.0015869140625,1.0,0.821813596807528,-3.5977352857019533,0.17590192811775468
564,22.600057134999588,bno085,-0.1875,0.0234375,9.6640625,0.0,0.041015625,0.001953125,0.0020751953125,-0.00103759765625,0.00164794921875,1.0,0.8145127231872681,-3.464929926685562,0.18454044548509183
565,22.640057579999848,bno085,0.1953125,0.05859375,9.66796875,-0.005859375,0.001953125,-0.00390625,0.0020751953125,-0.000732421875,0.0015869140625,1.0,0.814958648250633,-3.4298768458922084,0.17795948205114287
566,22.680058969999664,bno085,0.00390625,0.05859375,9.66796875,-0.0078125,0.037109375,0.0,0.0020751953125,-0.000732421875,0.0015869140625,1.0,0.814958648250633,-3.4298768458922084,0.17795948205114287
