sample,time_s,sensor,accel_x_mps2,accel_y_mps2,accel_z_mps2,gyro_x_radps,gyro_y_radps,gyro_z_radps,quat_i,quat_j,quat_k,quat_real,roll_deg,pitch_deg,yaw_deg
0,0.04005731899997045,bno085,2.1484375,0.13671875,9.39453125,-0.001953125,0.0,0.0,0.008544921875,-0.10589599609375,-0.00079345703125,0.99432373046875,6.299271349090265e-07,5.082985526643441e-08,-6.783830619382404e-06
1,0.08005561999993915,bno085,2.1484375,0.13671875,9.39453125,0.0078125,0.0,0.001953125,0.00860595703125,-0.10614013671875,-0.00079345703125,0.99432373046875,0.007028461492516862,-0.028450047891442915,-0.0005093966930817265
2,0.1200544200000877,bno085,2.1484375,0.13671875,9.39453125,-0.00390625,0.0,0.0,0.00860595703125,-0.10614013671875,-0.00079345703125,0.99432373046875,0.007028461492516862,-0.028450047891442915,-0.0005093966930817265
3,0.1600543510000989,bno085,2.1484375,0.17578125,9.390625,0.0,0.001953125,0.001953125,0.00860595703125,-0.1064453125,-0.00079345703125,0.9942626953125,0.007061313929942019,-0.06328023422864006,-0.00021909227057665664
4,0.20005487399998856,bno085,2.1484375,0.17578125,9.390625,0.0,0.001953125,0.001953125,0.008544921875,-0.106689453125,-0.00079345703125,0.9942626953125,0.00017752415116541344,-0.09172092455253104,0.0007650929243646585
5,0.24005465599998388,bno085,2.1484375,0.17578125,9.390625,0.001953125,0.0,0.0,0.008544921875,-0.10699462890625,-0.00079345703125,0.99420166015625,0.00021033235940561977,-0.12655346320867514,0.001057441156684888
6,0.28005543800009036,bno085,2.1484375,0.17578125,9.390625,0.00390625,0.0,0.001953125,0.008544921875,-0.10723876953125,-0.00079345703125,0.99420166015625,0.0002823758053222972,-0.15500604259262385,0.0012971272303478633
7,0.32005470200010677,bno085,2.1484375,0.17578125,9.390625,0.001953125,0.001953125,0.001953125,0.008544921875,-0.10723876953125,-0.00079345703125,0.99420166015625,0.0002823758053222972,-0.15500604259262385,0.0012971272303478633
8,0.3600550399999065,bno085,2.1484375,0.13671875,9.39453125,0.001953125,0.001953125,0.001953125,0.008544921875,-0.10748291015625,-0.00079345703125,0.994140625,0.00029717361808253065,-0.18272710722202076,0.0015294690889197421
9,0.40005376599992815,bno085,2.1484375,0.13671875,9.39453125,0.001953125,0.001953125,0.001953125,0.008544921875,-0.10772705078125,-0.00079345703125,0.994140625,0.00036921745873202966,-0.2111837940636963,0.0017691337677730185
10,0.4400539190000927,bno085,2.1484375,0.13671875,9.39453125,0.0,0.001953125,0.001953125,0.00848388671875,-0.10797119140625,-0.000732421875,0.994140625,-0.005789949673857809,-0.23957482694964607,0.009717138251226607
11,0.48005555300005653,bno085,2.1484375,0.13671875,9.39453125,0.0,0.001953125,0.0,0.00848388671875,-0.108154296875,-0.000732421875,0.99407958984375,-0.005794377983108438,-0.2601826239556453,0.009890346250262763
12,0.5200535389999459,bno085,2.1484375,0.17578125,9.390625,0.00390625,-0.001953125,0.0,0.00848388671875,-0.108154296875,-0.000732421875,0.99407958984375,-0.005794377983108438,-0.2601826239556453,0.009890346250262763
13,0.5600547100000313,bno085,2.1484375,0.17578125,9.390625,0.001953125,0.001953125,0.0,0.0084228515625,-0.1083984375,-0.000732421875,0.99407958984375,-0.012681874401794802,-0.28863782483737505,0.010889846850785785
14,0.6000559179999527,bno085,2.1484375,0.13671875,9.39453125,0.001953125,0.001953125,0.0,0.0084228515625,-0.10858154296875,-0.00067138671875,0.99407958984375,-0.011907825262567652,-0.3099254305185663,0.018024942733466692
15,0.6400548300000537,bno085,2.1484375,0.13671875,9.39453125,0.0,-0.001953125,0.0,0.00836181640625,-0.10882568359375,-0.00067138671875,0.9940185546875,-0.018854223334053323,-0.3376420966533123,0.019020842433300093
16,0.6800550200000544,bno085,2.109375,0.17578125,9.390625,0.0,0.0,0.0,0.00830078125,-0.1090087890625,-0.000732421875,0.9940185546875,-0.02648034666744042,-0.3590478028344597,0.013014445194918676
17,0.7200543020001078,bno085,2.1484375,0.17578125,9.390625,0.00390625,0.001953125,0.0,0.00830078125,-0.1090087890625,-0.000732421875,0.9940185546875,-0.02648034666744042,-0.3590478028344597,0.013014445194918676
18,0.7600555659998918,bno085,2.1484375,0.17578125,9.390625,0.001953125,0.0,0.0,0.00823974609375,-0.10919189453125,-0.00067138671875,0.99395751953125,-0.03272482465879066,-0.37958505465022824,0.020907036735877054
19,0.800055532999977,bno085,2.1484375,0.17578125,9.390625,0.001953125,0.0,0.0,0.0081787109375,-0.10931396484375,-0.00067138671875,0.99395751953125,-0.03964945205642969,-0.3938123859091079,0.021795669675102453
20,0.8400541670000621,bno085,2.1484375,0.13671875,9.39453125,0.001953125,0.0,0.0,0.0081787109375,-0.1094970703125,-0.00067138671875,0.99395751953125,-0.03959960624220639,-0.41516711611910867,0.021983092154801813
21,0.8800560049999149,bno085,2.1484375,0.13671875,9.39453125,0.001953125,0.0,0.0,0.00823974609375,-0.109619140625,-0.0006103515625,0.99395751953125,-0.031893290018241496,-0.42935028492063226,0.028293374681813734
22,0.9200552499999048,bno085,2.1484375,0.17578125,9.390625,0.00390625,0.0,0.0,0.00823974609375,-0.109619140625,-0.0006103515625,0.99395751953125,-0.031893290018241496,-0.42935028492063226,0.028293374681813734
23,0.9600562359999003,bno085,2.109375,0.17578125,9.390625,-0.0078125,0.001953125,0.0,0.00830078125,-0.1097412109375,-0.00067138671875,0.99395751953125,-0.025615728166537993,-0.44365925449623267,0.020697931082357877
24,1.000055943999996,bno085,2.1484375,0.13671875,9.39453125,-0.0078125,0.001953125,0.0,0.00823974609375,-0.10986328125,-0.00067138671875,0.993896484375,-0.03259646931612591,-0.4571399943997324,0.02158113483915273
25,1.0400551150000865,bno085,2.1484375,0.13671875,9.39453125,0.001953125,0.0,0.0,0.00830078125,-0.1099853515625,-0.0006103515625,0.993896484375,-0.02489237663072597,-0.47132503219917743,0.02788761659109224
26,1.080056415999934,bno085,2.1484375,0.13671875,9.39453125,0.0,0.0,0.001953125,0.00830078125,-0.11004638671875,-0.0006103515625,0.993896484375,-0.024875994126535426,-0.4784447100515637,0.027949239764425118
27,1.1200567910000245,bno085,2.1484375,0.17578125,9.390625,0.001953125,-0.001953125,0.0,0.00830078125,-0.11004638671875,-0.0006103515625,0.993896484375,-0.024875994126535426,-0.4784447100515637,0.027949239764425118
28,1.1600541469999825,bno085,2.1484375,0.13671875,9.39453125,0.001953125,0.0,0.0,0.00823974609375,-0.11016845703125,-0.0006103515625,0.993896484375,-0.031802214564839545,-0.49267583250644004,0.02884300780554702
29,1.2000538929999038,bno085,2.1484375,0.17578125,9.390625,0.001953125,0.0,0.0,0.00823974609375,-0.11029052734375,-0.0006103515625,0.99383544921875,-0.031825164878532444,-0.5061638801548929,0.028958226239859514
30,1.240054359999931,bno085,2.1484375,0.17578125,9.390625,0.0078125,0.0,0.0,0.00830078125,-0.1103515625,-0.0006103515625,0.99383544921875,-0.02485000678322097,-0.5132928682044964,0.02824846914080814
31,1.2800541980000162,bno085,2.1484375,0.13671875,9.39453125,0.0,0.0,0.0,0.00830078125,-0.1104736328125,-0.0006103515625,0.99383544921875,-0.02481724623043585,-0.5275338045833579,0.028371710363897754
32,1.3200535539999692,bno085,2.1484375,0.13671875,9.39453125,0.0,0.0,0.0,0.00830078125,-0.1104736328125,-0.0006103515625,0.99383544921875,-0.02481724623043585,-0.5275338045833579,0.028371710363897754
33,1.3600562439999067,bno085,2.1484375,0.17578125,9.390625,0.0,0.0,0.0,0.00830078125,-0.110595703125,-0.0006103515625,0.99383544921875,-0.02478448701691378,-0.5417754720656389,0.028494954434063764
34,1.4000550999999177,bno085,2.1484375,0.13671875,9.39453125,0.0,0.0,0.0,0.00823974609375,-0.11065673828125,-0.0006103515625,0.99383544921875,-0.031727458647100554,-0.5488877444882939,0.029330519042295604
35,1.440053326999987,bno085,2.1484375,0.17578125,9.390625,0.0,0.0,0.0,0.00823974609375,-0.11077880859375,-0.0006103515625,0.99383544921875,-0.03169489338447225,-0.5631304960159065,0.02945462246907099
36,1.480055479999919,bno085,2.1484375,0.13671875,9.39453125,0.0,0.0,0.0,0.0081787109375,-0.11083984375,-0.0006103515625,0.9937744140625,-0.03869336272681735,-0.569487161406321,0.030282949928599055
37,1.5200535769999988,bno085,2.1484375,0.13671875,9.39453125,0.0,0.0,0.0,0.0081787109375,-0.11083984375,-0.0006103515625,0.9937744140625,-0.03869336272681735,-0.569487161406321,0.030282949928599055
38,1.5600549519999731,bno085,2.1484375,0.17578125,9.390625,0.0,0.0,0.0,0.0081787109375,-0.11090087890625,-0.0006103515625,0.9937744140625,-0.03867717747191947,-0.5766085935822753,0.03034542393088977
39,1.6000537519998943,bno085,2.1484375,0.13671875,9.39453125,0.0,0.0,0.0,0.00811767578125,-0.11102294921875,-0.0006103515625,0.9937744140625,-0.045604312021293364,-0.5908431303561258,0.031246883270961624
40,1.6400545530000272,bno085,2.1484375,0.13671875,9.39453125,0.0,0.0,0.0,0.00811767578125,-0.111083984375,-0.0006103515625,0.9937744140625,-0.045588224911390564,-0.5979651061564774,0.03130978713775002
41,1.6800551870001073,bno085,2.1484375,0.17578125,9.390625,0.0,0.0,0.0,0.008056640625,-0.11114501953125,-0.0006103515625,0.9937744140625,-0.052531821705698624,-0.6050783735864778,0.032150056079037106
42,1.7200535619999755,bno085,2.1484375,0.13671875,9.39453125,0.0,0.0,0.0,0.008056640625,-0.11114501953125,-0.0006103515625,0.9937744140625,-0.052531821705698624,-0.6050783735864778,0.032150056079037106
43,1.7600560109999606,bno085,2.1484375,0.13671875,9.39453125,0.0,0.0,0.0,0.008056640625,-0.1112060546875,-0.0006103515625,0.9937744140625,-0.052515832610752586,-0.6122007099272252,0.03221338911503184
44,1.8000561450000987,bno085,2.1484375,0.17578125,9.390625,0.0,0.0,0.0,0.00799560546875,-0.11126708984375,-0.0006103515625,0.9937744140625,-0.05945970783822672,-0.6193143239931546,0.03305494252279886
45,1.8400550569999723,bno085,2.1484375,0.13671875,9.39453125,0.0,0.0,0.0,0.00799560546875,-0.111328125,-0.0006103515625,0.9937744140625,-0.05944381716190885,-0.626437021235939,0.03311870478779101
46,1.88005507999992,bno085,2.1484375,0.17578125,9.390625,0.0,0.0,0.0,0.00799560546875,-0.111328125,-0.00054931640625,0.9937744140625,-0.05874116178365069,-0.62637302826326,0.04006962373696111
47,1.920054473999926,bno085,2.1484375,0.17578125,9.390625,0.0,0.0,0.0,0.00799560546875,-0.11138916015625,-0.00054931640625,0.99371337890625,-0.058779711665165234,-0.6327362317689065,0.04012398020006895
48,1.9600560710000536,bno085,2.1484375,0.13671875,9.39453125,0.0,0.0,0.0,0.00799560546875,-0.11138916015625,-0.00054931640625,0.99371337890625,-0.058779711665165234,-0.6327362317689065,0.04012398020006895
49,2.0000573160000386,bno085,2.1484375,0.13671875,9.39453125,0.0,0.0,0.0,0.0079345703125,-0.1114501953125,-0.00054931640625,0.99371337890625,-0.06572398344339847,-0.6398495580846869,0.040967241931869035
50,2.0400547649999226,bno085,2.1484375,0.17578125,9.390625,0.0,0.0,0.0,0.0079345703125,-0.11151123046875,-0.00054931640625,0.99371337890625,-0.06570860916553517,-0.6469724064287441,0.04103143457632004
51,2.08005502900005,bno085,2.1484375,0.17578125,9.390625,0.0,0.0,0.0,0.0079345703125,-0.11151123046875,-0.00054931640625,0.99371337890625,-0.06570860916553517,-0.6469724064287441,0.04103143457632004
52,2.1200544589999026,bno085,2.1484375,0.17578125,9.390625,0.0,0.0,0.0,0.0079345703125,-0.11151123046875,-0.00054931640625,0.99371337890625,-0.06570860916553517,-0.6469724064287441,0.04103143457632004
53,2.160055444999898,bno085,2.1484375,0.13671875,9.39453125,0.0,0.0,0.0,0.0079345703125,-0.111572265625,-0.00054931640625,0.99371337890625,-0.06569323581203301,-0.6540954391587119,0.04109562815335933
54,2.2000538009999673,bno085,2.1484375,0.13671875,9.39453125,0.0,0.0,0.0,0.00787353515625,-0.111572265625,-0.00054931640625,0.99371337890625,-0.07265316149811978,-0.654086080342765,0.04187598124426014
55,2.240055601999984,bno085,2.109375,0.13671875,9.39453125,0.0,0.0,0.0,0.00787353515625,-0.11163330078125,-0.00054931640625,0.99371337890625,-0.07263788653926141,-0.6612092905620717,0.04194060346096503
56,2.2800559770000746,bno085,2.1484375,0.13671875,9.39453125,0.0,0.0,0.0,0.00787353515625,-0.11163330078125,-0.00054931640625,0.99371337890625,-0.07263788653926141,-0.6612092905620717,0.04194060346096503
57,2.320055519000107,bno085,2.1484375,0.17578125,9.4296875,0.0,0.0,0.0,0.00787353515625,-0.1116943359375,-0.00054931640625,0.99371337890625,-0.07262261260501708,-0.6683326853480582,0.04200522662818697
58,2.3600535230000332,bno085,2.1484375,0.13671875,9.39453125,0.0,0.0,0.0,0.00787353515625,-0.1116943359375,-0.00054931640625,0.99371337890625,-0.07262261260501708,-0.6683326853480582,0.04200522662818697
59,2.400056546000087,bno085,2.1484375,0.13671875,9.39453125,0.0,0.0,0.0,0.0078125,-0.1116943359375,-0.00054931640625,0.99371337890625,-0.07958272033590236,-0.6683233124316248,0.042786435174428344
60,2.4400554209998973,bno085,2.109375,0.13671875,9.39453125,0.0,0.0,0.0,0.0078125,-0.1116943359375,-0.00054931640625,0.99371337890625,-0.07958272033590236,-0.6683233124316248,0.042786435174428344
61,2.4800562410000566,bno085,2.109375,0.13671875,9.39453125,0.0,0.0,0.0,0.00775146484375,-0.1116943359375,-0.00054931640625,0.99371337890625,-0.08654281516682169,-0.668313939387461,0.04356764375486986
62,2.520055912000089,bno085,2.1484375,0.13671875,9.39453125,0.0,0.0,0.0,0.00775146484375,-0.1116943359375,-0.00054931640625,0.99371337890625,-0.08654281516682169,-0.668313939387461,0.04356764375486986
63,2.5600554909999573,bno085,2.1484375,0.17578125,9.390625,0.0,0.0,0.0,0.00775146484375,-0.1116943359375,-0.00054931640625,0.99371337890625,-0.08654281516682169,-0.668313939387461,0.04356764375486986
64,2.6000552909999897,bno085,2.109375,0.13671875,9.39453125,0.0,0.0,0.0,0.0076904296875,-0.1116943359375,-0.00054931640625,0.99371337890625,-0.09350289719650516,-0.6683045662156276,0.044348852369221065
65,2.6400561850000486,bno085,2.1484375,0.17578125,9.390625,0.0,0.0,0.0,0.0076904296875,-0.1116943359375,-0.00054931640625,0.99371337890625,-0.09350289719650516,-0.6683045662156276,0.044348852369221065
66,2.6800558750001073,bno085,2.1484375,0.17578125,9.390625,0.0,0.0,0.0,0.00762939453125,-0.1116943359375,-0.00054931640625,0.99371337890625,-0.10046296652368396,-0.6682951929161846,0.04513006101719149
67,2.720056119999981,bno085,2.1484375,0.13671875,9.39453125,0.0,0.0,0.0,0.00762939453125,-0.1116943359375,-0.00054931640625,0.99371337890625,-0.10046296652368396,-0.6682951929161846,0.04513006101719149
68,2.760055439000098,bno085,2.1484375,0.17578125,9.390625,0.0,0.0,0.0,0.00762939453125,-0.1116943359375,-0.00054931640625,0.99371337890625,-0.10046296652368396,-0.6682951929161846,0.04513006101719149
69,2.800053462000051,bno085,2.1484375,0.17578125,9.390625,0.0,0.0,0.0,0.00762939453125,-0.1116943359375,-0.00054931640625,0.99371337890625,-0.10046296652368396,-0.6682951929161846,0.04513006101719149
70,2.8400550779999776,bno085,2.1484375,0.17578125,9.390625,0.0,0.0,0.0,0.00762939453125,-0.1116943359375,-0.00054931640625,0.99371337890625,-0.10046296652368396,-0.6682951929161846,0.04513006101719149
71,2.880055453000068,bno085,2.1484375,0.17578125,9.390625,0.0,0.0,0.0,0.0076904296875,-0.1116943359375,-0.00054931640625,0.99371337890625,-0.09350289719650516,-0.6683045662156276,0.044348852369221065
72,2.9200547170000846,bno085,2.1484375,0.13671875,9.39453125,0.0,0.0,0.0,0.0076904296875,-0.1116943359375,-0.00054931640625,0.99371337890625,-0.09350289719650516,-0.6683045662156276,0.044348852369221065
73,2.9600556840000536,bno085,2.1484375,0.17578125,9.390625,0.0,0.0,0.0,0.0076904296875,-0.1116943359375,-0.00054931640625,0.99371337890625,-0.09350289719650516,-0.6683045662156276,0.044348852369221065
74,3.000055651999901,bno085,2.1484375,0.13671875,9.39453125,0.0,0.0,0.0,0.00775146484375,-0.1116943359375,-0.00054931640625,0.99371337890625,-0.08654281516682169,-0.668313939387461,0.04356764375486986
75,3.040055768000002,bno085,2.1484375,0.13671875,9.39453125,0.0,0.0,0.0,0.00775146484375,-0.1116943359375,-0.00054931640625,0.99371337890625,-0.08654281516682169,-0.668313939387461,0.04356764375486986
76,3.0800558460000502,bno085,2.1484375,0.13671875,9.39453125,0.0,0.0,0.0,0.00775146484375,-0.11175537109375,-0.00054931640625,0.99371337890625,-0.0865277376053684,-0.6754375048544552,0.04363312333333641
77,3.120056350999903,bno085,2.1484375,0.13671875,9.39453125,0.0,0.0,0.0,0.00775146484375,-0.11175537109375,-0.00054931640625,0.99371337890625,-0.0865277376053684,-0.6754375048544552,0.04363312333333641
78,3.1600553549999404,bno085,2.1484375,0.13671875,9.39453125,0.0,0.0,0.0,0.0078125,-0.11175537109375,-0.00054931640625,0.99371337890625,-0.07956754509993534,-0.6754468848872923,0.04285148702393208
79,3.2000545640000837,bno085,2.1484375,0.17578125,9.390625,0.0,0.0,0.0,0.0078125,-0.11181640625,-0.00054931640625,0.99371337890625,-0.07955237098885379,-0.6825706420903302,0.04291653984195694
80,3.2400556049999523,bno085,2.1484375,0.13671875,9.39453125,0.0,0.0,0.0,0.00775146484375,-0.11181640625,-0.00054931640625,0.99371337890625,-0.08651266127039983,-0.6825612550694269,0.043698603892673486
81,3.2800557759999265,bno085,2.1484375,0.13671875,9.39453125,0.0,0.0,0.0,0.00775146484375,-0.11181640625,-0.00054931640625,0.99371337890625,-0.08651266127039983,-0.6825612550694269,0.043698603892673486
82,3.3200555030000487,bno085,2.1484375,0.13671875,9.39453125,0.0,0.0,0.0,0.00775146484375,-0.11181640625,-0.00054931640625,0.99371337890625,-0.08651266127039983,-0.6825612550694269,0.043698603892673486
83,3.3600548409999647,bno085,2.1484375,0.13671875,9.39453125,0.0,0.0,0.0,0.00775146484375,-0.11181640625,-0.00054931640625,0.99371337890625,-0.08651266127039983,-0.6825612550694269,0.043698603892673486
84,3.4000552350000817,bno085,2.1484375,0.17578125,9.390625,0.0,0.0,0.0,0.00775146484375,-0.11187744140625,-0.00054931640625,0.99371337890625,-0.08649758616126137,-0.6896851901223879,0.043764085435746
85,3.440056535999929,bno085,2.1484375,0.13671875,9.39453125,0.0,0.0,0.0,0.00775146484375,-0.11187744140625,-0.00054931640625,0.99371337890625,-0.08649758616126137,-0.6896851901223879,0.043764085435746
86,3.480056447999914,bno085,2.1484375,0.17578125,9.390625,0.0,0.0,0.0,0.00775146484375,-0.11187744140625,-0.00054931640625,0.99371337890625,-0.08649758616126137,-0.6896851901223879,0.043764085435746
87,3.52005589700002,bno085,2.1484375,0.17578125,9.390625,0.0,0.0,0.0,0.00775146484375,-0.1119384765625,-0.00054931640625,0.99371337890625,-0.08648251227729846,-0.6968093101033309,0.04382956796541899
88,3.5600553829999626,bno085,2.1484375,0.17578125,9.390625,0.0,0.0,0.0,0.00775146484375,-0.1119384765625,-0.00054931640625,0.99371337890625,-0.08648251227729846,-0.6968093101033309,0.04382956796541899
89,3.6000556839999263,bno085,2.1484375,0.13671875,9.39453125,0.0,0.0,0.0,0.00775146484375,-0.1119384765625,-0.00054931640625,0.99371337890625,-0.08648251227729846,-0.6968093101033309,0.04382956796541899
90,3.640055595999911,bno085,2.1484375,0.17578125,9.390625,0.0,0.0,0.0,0.00775146484375,-0.1119384765625,-0.00054931640625,0.99371337890625,-0.08648251227729846,-0.6968093101033309,0.04382956796541899
91,3.680055304000007,bno085,2.1484375,0.13671875,9.39453125,0.0,0.0,0.0,0.0078125,-0.1119384765625,-0.00054931640625,0.99371337890625,-0.07952202613871018,-0.6968187110985432,0.04304664839495481
92,3.72005858600005,bno085,2.1484375,0.17578125,9.390625,0.0,0.0,0.0,0.0078125,-0.1119384765625,-0.00054931640625,0.99365234375,-0.0795748591354758,-0.6960554797417873,0.043037177528146335
93,3.760058608999998,bno085,2.1484375,0.17578125,9.390625,0.0,0.0,0.0,0.0078125,-0.1119384765625,-0.00054931640625,0.99365234375,-0.0795748591354758,-0.6960554797417873,0.043037177528146335
94,3.8000568919999296,bno085,2.1484375,0.17578125,9.390625,0.0,0.0,0.0,0.0078125,-0.1119384765625,-0.00054931640625,0.99365234375,-0.0795748591354758,-0.6960554797417873,0.043037177528146335
95,3.840057563000073,bno085,2.1484375,0.17578125,9.390625,0.0,0.0,0.0,0.0078125,-0.11199951171875,-0.00054931640625,0.99365234375,-0.07955968853807815,-0.7031793976426544,0.04310222618621579
96,3.880058919000021,bno085,2.1484375,0.17578125,9.390625,0.0,0.0,0.0,0.00787353515625,-0.11199951171875,-0.00054931640625,0.99365234375,-0.07259948856305537,-0.7031888056958995,0.04231887661613912
97,3.920059517000027,bno085,2.1484375,0.13671875,9.39453125,0.0,0.0,0.0,0.0079345703125,-0.11199951171875,-0.00054931640625,0.99365234375,-0.06563927558782048,-0.7031982136145242,0.04153552708068556
98,3.960055855000064,bno085,2.1484375,0.17578125,9.390625,0.0,0.0,0.0,0.0079345703125,-0.11199951171875,-0.00054931640625,0.99365234375,-0.06563927558782048,-0.7031982136145242,0.04153552708068556
99,4.000059432999933,bno085,2.1484375,0.17578125,9.390625,0.0,0.0,0.0,0.0079345703125,-0.11199951171875,-0.00054931640625,0.99365234375,-0.06563927558782048,-0.7031982136145242,0.04153552708068556
100,4.040058790000103,bno085,2.1484375,0.13671875,9.43359375,0.0,0.0,0.0,0.00799560546875,-0.11199951171875,-0.00054931640625,0.99365234375,-0.058679049513647275,-0.703207621398464,0.040752177580147965
101,4.080061202000024,bno085,2.1484375,0.17578125,9.4296875,0.0,0.0,0.0,0.00799560546875,-0.11199951171875,-0.00054931640625,0.99365234375,-0.058679049513647275,-0.703207621398464,0.040752177580147965
102,4.120059576999893,bno085,2.109375,0.17578125,9.390625,0.0,0.0,0.0,0.008056640625,-0.11199951171875,-0.00054931640625,0.99365234375,-0.0517188102418108,-0.7032170290476543,0.03996882811481919
103,4.16005863700002,bno085,2.1484375,0.13671875,9.39453125,0.0,0.0,0.0,0.008056640625,-0.11199951171875,-0.00054931640625,0.99365234375,-0.0517188102418108,-0.7032170290476543,0.03996882811481919
104,4.200056716000063,bno085,2.1484375,0.13671875,9.39453125,0.0,0.0,0.0,0.008056640625,-0.11199951171875,-0.00054931640625,0.99365234375,-0.0517188102418108,-0.7032170290476543,0.03996882811481919
105,4.24005681299991,bno085,2.1484375,0.13671875,9.39453125,0.0,0.0,0.0,0.008056640625,-0.11199951171875,-0.00054931640625,0.99365234375,-0.0517188102418108,-0.7032170290476543,0.03996882811481919
106,4.280056410000043,bno085,2.1484375,0.13671875,9.43359375,0.0,0.0,0.0,0.008056640625,-0.11199951171875,-0.00054931640625,0.99365234375,-0.0517188102418108,-0.7032170290476543,0.03996882811481919
107,4.320056969999996,bno085,2.109375,0.17578125,9.390625,0.0,0.0,0.0,0.008056640625,-0.11199951171875,-0.00054931640625,0.99365234375,-0.0517188102418108,-0.7032170290476543,0.03996882811481919
108,4.360059270999955,bno085,2.1484375,0.17578125,9.390625,0.0,0.0,0.0,0.008056640625,-0.11199951171875,-0.00054931640625,0.99365234375,-0.0517188102418108,-0.7032170290476543,0.03996882811481919
109,4.400059128000066,bno085,2.1484375,0.13671875,9.39453125,0.0,0.0,0.0,0.00799560546875,-0.11199951171875,-0.00054931640625,0.99365234375,-0.058679049513647275,-0.703207621398464,0.040752177580147965
110,4.440058965999924,bno085,2.1484375,0.17578125,9.390625,0.0,0.0,0.0,0.00799560546875,-0.11199951171875,-0.00054931640625,0.99365234375,-0.058679049513647275,-0.703207621398464,0.040752177580147965
111,4.4800600440000835,bno085,2.1484375,0.13671875,9.39453125,0.0,0.0,0.0,0.00799560546875,-0.1119384765625,-0.00054931640625,0.99365234375,-0.05869451438496494,-0.6960836825435469,0.040688412264732514
112,4.520059455999899,bno085,2.1484375,0.17578125,9.390625,0.0,0.0,0.0,0.00799560546875,-0.1119384765625,-0.00054931640625,0.99365234375,-0.05869451438496494,-0.6960836825435469,0.040688412264732514
113,4.5600582019999365,bno085,2.1484375,0.17578125,9.390625,0.0,0.0,0.0,0.00799560546875,-0.1119384765625,-0.00054931640625,0.99365234375,-0.05869451438496494,-0.6960836825435469,0.040688412264732514
114,4.600058299000011,bno085,2.1484375,0.13671875,9.39453125,0.0,0.0,0.0,0.0079345703125,-0.1119384765625,-0.00054931640625,0.99365234375,-0.06565464236802378,-0.696074281742652,0.04147133398441148
115,4.640058988999954,bno085,2.1484375,0.17578125,9.390625,0.0,0.0,0.0,0.0079345703125,-0.1119384765625,-0.00054931640625,0.99365234375,-0.06565464236802378,-0.696074281742652,0.04147133398441148
116,4.6800568640001075,bno085,2.1484375,0.13671875,9.39453125,0.0,0.0,0.0,0.0079345703125,-0.1119384765625,-0.00054931640625,0.99365234375,-0.06565464236802378,-0.696074281742652,0.04147133398441148
117,4.720059368999955,bno085,2.1484375,0.13671875,9.39453125,0.0,0.0,0.0,0.0079345703125,-0.11199951171875,-0.00054931640625,0.99365234375,-0.06563927558782048,-0.7031982136145242,0.04153552708068556
118,4.760059318000003,bno085,2.1484375,0.17578125,9.390625,0.0,0.0,0.0,0.0079345703125,-0.11199951171875,-0.00054931640625,0.99365234375,-0.06563927558782048,-0.7031982136145242,0.04153552708068556
119,4.800059340999951,bno085,2.1484375,0.17578125,9.390625,0.0,0.0,0.0,0.0079345703125,-0.11199951171875,-0.00054931640625,0.99365234375,-0.06563927558782048,-0.7031982136145242,0.04153552708068556
120,4.840057716000047,bno085,2.1484375,0.13671875,9.39453125,0.0,0.0,0.0,0.0079345703125,-0.11199951171875,-0.00054931640625,0.99365234375,-0.06563927558782048,-0.7031982136145242,0.04153552708068556
121,4.880057109000063,bno085,2.1484375,0.17578125,9.390625,0.0,0.0,0.0,0.0079345703125,-0.11199951171875,-0.00054931640625,0.99365234375,-0.06563927558782048,-0.7031982136145242,0.04153552708068556
122,4.920057243999963,bno085,2.1484375,0.17578125,9.390625,0.0,0.0,0.0,0.00787353515625,-0.11199951171875,-0.00054931640625,0.99365234375,-0.07259948856305537,-0.7031888056958995,0.04231887661613912
123,4.960056656000006,bno085,2.1484375,0.13671875,9.39453125,0.0,0.0,0.0,0.00787353515625,-0.11199951171875,-0.00054931640625,0.99365234375,-0.07259948856305537,-0.7031888056958995,0.04231887661613912
124,5.000056659999927,bno085,2.1484375,0.17578125,9.390625,0.0,0.0,0.0,0.00787353515625,-0.11199951171875,-0.00054931640625,0.99365234375,-0.07259948856305537,-0.7031888056958995,0.04231887661613912
125,5.040056369000013,bno085,2.1484375,0.13671875,9.39453125,0.0,0.0,0.0,0.00787353515625,-0.11199951171875,-0.00054931640625,0.99365234375,-0.07259948856305537,-0.7031888056958995,0.04231887661613912
126,5.080065613999977,bno085,2.1484375,0.13671875,9.43359375,0.0,0.0,0.0,0.00787353515625,-0.112060546875,-0.00054931640625,0.99365234375,-0.07258422089552187,-0.7103129157267689,0.04238349846083083
127,5.120064248000062,bno085,2.1484375,0.17578125,9.390625,0.0,0.0,0.0,0.00787353515625,-0.112060546875,-0.00054931640625,0.99365234375,-0.07258422089552187,-0.7103129157267689,0.04238349846083083
128,5.160055475000036,bno085,2.1484375,0.13671875,9.39453125,0.0,0.0,0.0,0.00787353515625,-0.112060546875,-0.00054931640625,0.99365234375,-0.07258422089552187,-0.7103129157267689,0.04238349846083083
129,5.200054386999909,bno085,2.1484375,0.13671875,9.43359375,0.0,0.0,0.0,0.0078125,-0.112060546875,-0.00054931640625,0.99365234375,-0.07954451906365506,-0.7103035006878167,0.04316727582424385
130,5.24005494700009,bno085,2.1484375,0.17578125,9.390625,0.0,0.0,0.0,0.0078125,-0.112060546875,-0.00054931640625,0.99365234375,-0.07954451906365506,-0.7103035006878167,0.04316727582424385
131,5.280053526000074,bno085,2.1484375,0.13671875,9.39453125,0.0,0.0,0.0,0.0078125,-0.112060546875,-0.00054931640625,0.99365234375,-0.07954451906365506,-0.7103035006878167,0.04316727582424385
132,5.320055660999969,bno085,2.1484375,0.13671875,9.39453125,0.0,0.0,0.0,0.0078125,-0.112060546875,-0.00054931640625,0.99365234375,-0.07954451906365506,-0.7103035006878167,0.04316727582424385
133,5.3600559060000705,bno085,2.1484375,0.17578125,9.390625,0.0,0.0,0.0,0.0078125,-0.112060546875,-0.00054931640625,0.99365234375,-0.07954451906365506,-0.7103035006878167,0.04316727582424385
134,5.400055540000039,bno085,2.1484375,0.13671875,9.39453125,0.0,0.0,0.0,0.0078125,-0.112060546875,-0.00054931640625,0.99365234375,-0.07954451906365506,-0.7103035006878167,0.04316727582424385
135,5.440055323000024,bno085,2.1484375,0.17578125,9.390625,0.0,0.0,0.0,0.0078125,-0.112060546875,-0.00054931640625,0.99365234375,-0.07954451906365506,-0.7103035006878167,0.04316727582424385
136,5.480056012999967,bno085,2.109375,0.17578125,9.390625,0.0,0.0,0.0,0.0078125,-0.112060546875,-0.00054931640625,0.99365234375,-0.07954451906365506,-0.7103035006878167,0.04316727582424385
137,5.520057351000105,bno085,2.1484375,0.13671875,9.39453125,0.0,0.0,0.0,0.0078125,-0.112060546875,-0.00054931640625,0.99365234375,-0.07954451906365506,-0.7103035006878167,0.04316727582424385
138,5.5600565590000315,bno085,2.1484375,0.13671875,9.39453125,0.0,0.0,0.0,0.0078125,-0.112060546875,-0.00054931640625,0.99365234375,-0.07954451906365506,-0.7103035006878167,0.04316727582424385
139,5.600055323000106,bno085,2.1484375,0.17578125,9.390625,0.0,0.0,0.0,0.00775146484375,-0.112060546875,-0.00054931640625,0.99365234375,-0.08650480433048885,-0.7102940855126649,0.043951053222012364
140,5.64005517999999,bno085,2.1484375,0.17578125,9.390625,0.0,0.0,0.0,0.00775146484375,-0.112060546875,-0.00054931640625,0.99365234375,-0.08650480433048885,-0.7102940855126649,0.043951053222012364
141,5.680059129000028,bno085,2.1484375,0.17578125,9.390625,0.0,0.0,0.0,0.00775146484375,-0.112060546875,-0.00054931640625,0.99365234375,-0.08650480433048885,-0.7102940855126649,0.043951053222012364
142,5.720057893000103,bno085,2.1484375,0.13671875,9.39453125,0.0,0.0,0.0,0.00775146484375,-0.112060546875,-0.00054931640625,0.99365234375,-0.08650480433048885,-0.7102940855126649,0.043951053222012364
143,5.760058267999966,bno085,2.1484375,0.17578125,9.390625,0.0,0.0,0.0,0.00775146484375,-0.112060546875,-0.00054931640625,0.99365234375,-0.08650480433048885,-0.7102940855126649,0.043951053222012364
144,5.800055383999961,bno085,2.1484375,0.17578125,9.390625,0.0,0.0,0.0,0.00775146484375,-0.112060546875,-0.00054931640625,0.99365234375,-0.08650480433048885,-0.7102940855126649,0.043951053222012364
145,5.840055424999946,bno085,2.1484375,0.13671875,9.39453125,0.0,0.0,0.0,0.00775146484375,-0.112060546875,-0.00048828125,0.99365234375,-0.08580730746828198,-0.7102286163968566,0.05090122313955062
146,5.880058707999979,bno085,2.1484375,0.13671875,9.39453125,0.0,0.0,0.0,0.00775146484375,-0.112060546875,-0.00048828125,0.99365234375,-0.08580730746828198,-0.7102286163968566,0.05090122313955062
147,5.920057324000027,bno085,2.1484375,0.17578125,9.390625,0.0,0.0,0.0,0.00775146484375,-0.112060546875,-0.00054931640625,0.99365234375,-0.08650480433048885,-0.7102940855126649,0.043951053222012364
148,5.960059236000006,bno085,2.1484375,0.13671875,9.39453125,0.0,0.0,0.0,0.00775146484375,-0.112060546875,-0.00054931640625,0.99365234375,-0.08650480433048885,-0.7102940855126649,0.043951053222012364
149,6.000059406999981,bno085,2.1484375,0.17578125,9.390625,0.0,0.0,0.0,0.0078125,-0.112060546875,-0.00054931640625,0.99365234375,-0.07954451906365506,-0.7103035006878167,0.04316727582424385
150,6.040071282000099,bno085,2.1484375,0.17578125,9.390625,0.0,0.0,0.0,0.0078125,-0.112060546875,-0.00054931640625,0.99365234375,-0.07954451906365506,-0.7103035006878167,0.04316727582424385
151,6.0800582679999025,bno085,2.1484375,0.13671875,9.39453125,0.0,0.0,0.0,0.0078125,-0.112060546875,-0.00054931640625,0.99365234375,-0.07954451906365506,-0.7103035006878167,0.04316727582424385
152,6.120058624999956,bno085,2.1484375,0.13671875,9.39453125,0.0,0.0,0.0,0.0078125,-0.11212158203125,-0.00054931640625,0.99365234375,-0.07952935071154765,-0.7174277889672339,0.04323232644507679
153,6.1600577219999195,bno085,2.1484375,0.17578125,9.390625,0.0,0.0,0.0,0.0078125,-0.11212158203125,-0.00054931640625,0.99365234375,-0.07952935071154765,-0.7174277889672339,0.04323232644507679
154,6.200058078999973,bno085,2.1484375,0.17578125,9.390625,0.0,0.0,0.0,0.0078125,-0.11212158203125,-0.00054931640625,0.99365234375,-0.07952935071154765,-0.7174277889672339,0.04323232644507679
155,6.24005726900009,bno085,2.1484375,0.17578125,9.390625,0.0,0.0,0.0,0.0078125,-0.11212158203125,-0.00054931640625,0.99365234375,-0.07952935071154765,-0.7174277889672339,0.04323232644507679
156,6.280057551000027,bno085,2.1484375,0.13671875,9.39453125,0.0,0.0,0.0,0.0078125,-0.11212158203125,-0.00054931640625,0.99365234375,-0.07952935071154765,-0.7174277889672339,0.04323232644507679
157,6.320056870999906,bno085,2.1484375,0.13671875,9.39453125,0.0,0.0,0.0,0.0078125,-0.11212158203125,-0.00054931640625,0.99365234375,-0.07952935071154765,-0.7174277889672339,0.04323232644507679
158,6.360057634999976,bno085,2.1484375,0.17578125,9.390625,0.0,0.0,0.0,0.0078125,-0.11212158203125,-0.00054931640625,0.99365234375,-0.07952935071154765,-0.7174277889672339,0.04323232644507679
159,6.400058601999945,bno085,2.1484375,0.17578125,9.390625,0.0,0.0,0.0,0.0078125,-0.11212158203125,-0.00054931640625,0.99365234375,-0.07952935071154765,-0.7174277889672339,0.04323232644507679
160,6.44006249600011,bno085,2.1484375,0.13671875,9.39453125,0.0,0.0,0.0,0.0078125,-0.11212158203125,-0.00054931640625,0.99365234375,-0.07952935071154765,-0.7174277889672339,0.04323232644507679
161,6.48005724099994,bno085,2.1484375,0.17578125,9.390625,0.0,0.0,0.0,0.0078125,-0.11212158203125,-0.00054931640625,0.99365234375,-0.07952935071154765,-0.7174277889672339,0.04323232644507679
162,6.520057023999925,bno085,2.1484375,0.17578125,9.390625,0.0,0.0,0.0,0.0078125,-0.11212158203125,-0.00054931640625,0.99365234375,-0.07952935071154765,-0.7174277889672339,0.04323232644507679
163,6.560058603000016,bno085,2.1484375,0.17578125,9.390625,0.0,0.0,0.0,0.0078125,-0.11212158203125,-0.00054931640625,0.99365234375,-0.07952935071154765,-0.7174277889672339,0.04323232644507679
164,6.600058015000059,bno085,2.1484375,0.17578125,9.390625,0.0,0.0,0.0,0.0078125,-0.11212158203125,-0.00054931640625,0.99365234375,-0.07952935071154765,-0.7174277889672339,0.04323232644507679
165,6.640058094000096,bno085,2.1484375,0.17578125,9.390625,0.0,0.0,0.0,0.00787353515625,-0.11212158203125,-0.00054931640625,0.99365234375,-0.07256895424868658,-0.7174372109912783,0.042448121275882884
166,6.6800569320000704,bno085,2.1484375,0.17578125,9.390625,0.0,0.0,0.0,0.00787353515625,-0.11212158203125,-0.00054931640625,0.99365234375,-0.07256895424868658,-0.7174372109912783,0.042448121275882884
167,6.720059085000003,bno085,2.1484375,0.17578125,9.390625,0.0,0.0,0.0,0.00787353515625,-0.11212158203125,-0.00054931640625,0.99365234375,-0.07256895424868658,-0.7174372109912783,0.042448121275882884
168,6.760060051999972,bno085,2.1484375,0.17578125,9.390625,0.0,0.0,0.0,0.00787353515625,-0.11212158203125,-0.00054931640625,0.99365234375,-0.07256895424868658,-0.7174372109912783,0.042448121275882884
169,6.800059019999935,bno085,2.1484375,0.17578125,9.390625,0.0,0.0,0.0,0.00787353515625,-0.11212158203125,-0.00054931640625,0.99365234375,-0.07256895424868658,-0.7174372109912783,0.042448121275882884
170,6.840056283999957,bno085,2.1484375,0.13671875,9.39453125,0.0,0.0,0.0,0.0079345703125,-0.11212158203125,-0.00054931640625,0.99365234375,-0.06560854478599203,-0.717446632877409,0.0416639161413635
171,6.880059900000106,bno085,2.1484375,0.17578125,9.4296875,0.0,0.0,0.0,0.0079345703125,-0.11212158203125,-0.00054931640625,0.99365234375,-0.06560854478599203,-0.717446632877409,0.0416639161413635
172,6.920056960000011,bno085,2.1484375,0.17578125,9.390625,0.0,0.0,0.0,0.0079345703125,-0.11212158203125,-0.00054931640625,0.99365234375,-0.06560854478599203,-0.717446632877409,0.0416639161413635
173,6.960057890999906,bno085,2.1484375,0.17578125,9.390625,0.0,0.0,0.0,0.0079345703125,-0.11212158203125,-0.00054931640625,0.99365234375,-0.06560854478599203,-0.717446632877409,0.0416639161413635
174,7.000057672999901,bno085,2.1484375,0.13671875,9.39453125,0.0,0.0,0.0,0.00799560546875,-0.11212158203125,-0.00054931640625,0.99365234375,-0.05864812222474595,-0.7174560546255601,0.04087971104181244
175,7.040057085999933,bno085,2.1484375,0.17578125,9.390625,0.0,0.0,0.0,0.00799560546875,-0.11212158203125,-0.00054931640625,0.99365234375,-0.05864812222474595,-0.7174560546255601,0.04087971104181244
176,7.080057812999939,bno085,2.1484375,0.13671875,9.39453125,0.0,0.0,0.0,0.00799560546875,-0.11212158203125,-0.00054931640625,0.99365234375,-0.05864812222474595,-0.7174560546255601,0.04087971104181244
177,7.120058076000078,bno085,2.1484375,0.17578125,9.390625,0.0,0.0,0.0,0.008056640625,-0.11212158203125,-0.00054931640625,0.99365234375,-0.05168768646623145,-0.7174654762356658,0.0400955059775235
178,7.160058100000015,bno085,2.1484375,0.17578125,9.390625,0.0,0.0,0.0,0.008056640625,-0.11212158203125,-0.00054931640625,0.99365234375,-0.05168768646623145,-0.7174654762356658,0.0400955059775235
179,7.2000599010000315,bno085,2.1484375,0.13671875,9.39453125,0.0,0.0,0.0,0.008056640625,-0.11212158203125,-0.00054931640625,0.99365234375,-0.05168768646623145,-0.7174654762356658,0.0400955059775235
180,7.240058109000074,bno085,2.1484375,0.13671875,9.39453125,0.0,0.0,0.0,0.008056640625,-0.11212158203125,-0.00054931640625,0.99365234375,-0.05168768646623145,-0.7174654762356658,0.0400955059775235
181,7.280056855000112,bno085,2.1484375,0.13671875,9.39453125,0.0,0.0,0.0,0.008056640625,-0.11212158203125,-0.00054931640625,0.99365234375,-0.05168768646623145,-0.7174654762356658,0.0400955059775235
182,7.320059081999943,bno085,2.1484375,0.13671875,9.39453125,0.0,0.0,0.0,0.008056640625,-0.11212158203125,-0.00054931640625,0.99365234375,-0.05168768646623145,-0.7174654762356658,0.0400955059775235
183,7.360060215999965,bno085,2.1484375,0.17578125,9.390625,0.0,0.0,0.0,0.008056640625,-0.11212158203125,-0.00054931640625,0.99365234375,-0.05168768646623145,-0.7174654762356658,0.0400955059775235
184,7.4000583689999075,bno085,2.1484375,0.17578125,9.390625,0.0,0.0,0.0,0.008056640625,-0.11212158203125,-0.00054931640625,0.99365234375,-0.05168768646623145,-0.7174654762356658,0.0400955059775235
185,7.44005783700004,bno085,2.1484375,0.13671875,9.39453125,0.0,0.0,0.0,0.00799560546875,-0.11212158203125,-0.00054931640625,0.99365234375,-0.05864812222474595,-0.7174560546255601,0.04087971104181244
186,7.480058378999956,bno085,2.1484375,0.17578125,9.390625,0.0,0.0,0.0,0.00799560546875,-0.11212158203125,-0.00054931640625,0.99365234375,-0.05864812222474595,-0.7174560546255601,0.04087971104181244
187,7.520059234999962,bno085,2.1484375,0.17578125,9.390625,0.0,0.0,0.0,0.00799560546875,-0.11212158203125,-0.00054931640625,0.99365234375,-0.05864812222474595,-0.7174560546255601,0.04087971104181244
188,7.5600615549999475,bno085,2.1484375,0.17578125,9.390625,0.0,0.0,0.0,0.00799560546875,-0.11212158203125,-0.00054931640625,0.99365234375,-0.05864812222474595,-0.7174560546255601,0.04087971104181244
189,7.600058171000001,bno085,2.1484375,0.13671875,9.39453125,0.0,0.0,0.0,0.00799560546875,-0.11212158203125,-0.00054931640625,0.99365234375,-0.05864812222474595,-0.7174560546255601,0.04087971104181244
190,7.6400571760000275,bno085,2.1484375,0.13671875,9.39453125,0.0,0.0,0.0,0.00799560546875,-0.11212158203125,-0.00054931640625,0.99365234375,-0.05864812222474595,-0.7174560546255601,0.04087971104181244
191,7.6800584210000125,bno085,2.1484375,0.17578125,9.390625,0.0,0.0,0.0,0.00799560546875,-0.11212158203125,-0.00054931640625,0.99365234375,-0.05864812222474595,-0.7174560546255601,0.04087971104181244
192,7.720058389000087,bno085,2.1484375,0.13671875,9.39453125,0.0,0.0,0.0,0.00799560546875,-0.11212158203125,-0.00054931640625,0.99365234375,-0.05864812222474595,-0.7174560546255601,0.04087971104181244
193,7.760057578999977,bno085,2.1484375,0.17578125,9.390625,0.0,0.0,0.0,0.00799560546875,-0.11212158203125,-0.00054931640625,0.99365234375,-0.05864812222474595,-0.7174560546255601,0.04087971104181244
194,7.800058842999988,bno085,2.1484375,0.13671875,9.39453125,0.0,0.0,0.0,0.00799560546875,-0.11212158203125,-0.00054931640625,0.99365234375,-0.05864812222474595,-0.7174560546255601,0.04087971104181244
195,7.840058087999978,bno085,2.1484375,0.13671875,9.39453125,0.0,0.0,0.0,0.008056640625,-0.11212158203125,-0.00054931640625,0.99365234375,-0.05168768646623145,-0.7174654762356658,0.0400955059775235
196,7.8800603709998995,bno085,2.1484375,0.17578125,9.390625,0.0,0.0,0.0,0.008056640625,-0.11212158203125,-0.00054931640625,0.99365234375,-0.05168768646623145,-0.7174654762356658,0.0400955059775235
197,7.920057227999905,bno085,2.1484375,0.17578125,9.390625,0.0,0.0,0.0,0.008056640625,-0.11212158203125,-0.00054931640625,0.99365234375,-0.05168768646623145,-0.7174654762356658,0.0400955059775235
198,7.960058750999906,bno085,2.1484375,0.17578125,9.390625,0.0,0.0,0.0,0.008056640625,-0.11212158203125,-0.00054931640625,0.99365234375,-0.05168768646623145,-0.7174654762356658,0.0400955059775235
199,8.00005770000007,bno085,2.1484375,0.17578125,9.390625,0.0,0.0,0.0,0.008056640625,-0.11212158203125,-0.00054931640625,0.99365234375,-0.05168768646623145,-0.7174654762356658,0.0400955059775235
200,8.040058261000013,bno085,2.1484375,0.17578125,9.4296875,0.0,0.0,0.0,0.008056640625,-0.11212158203125,-0.00054931640625,0.99365234375,-0.05168768646623145,-0.7174654762356658,0.0400955059775235
201,8.080059079999955,bno085,2.1484375,0.13671875,9.39453125,0.0,0.0,0.0,0.008056640625,-0.11212158203125,-0.00054931640625,0.99365234375,-0.05168768646623145,-0.7174654762356658,0.0400955059775235
202,8.120058602999961,bno085,2.1484375,0.17578125,9.390625,0.0,0.0,0.0,0.008056640625,-0.11212158203125,-0.00054931640625,0.99365234375,-0.05168768646623145,-0.7174654762356658,0.0400955059775235
203,8.160058719000062,bno085,2.1484375,0.17578125,9.390625,0.0,0.0,0.0,0.008056640625,-0.11212158203125,-0.00054931640625,0.99365234375,-0.05168768646623145,-0.7174654762356658,0.0400955059775235
204,8.200059594000095,bno085,2.1484375,0.17578125,9.390625,0.0,0.0,0.0,0.008056640625,-0.11212158203125,-0.00054931640625,0.99365234375,-0.05168768646623145,-0.7174654762356658,0.0400955059775235
205,8.240059820999932,bno085,2.1484375,0.17578125,9.390625,0.0,0.0,0.0,0.008056640625,-0.11212158203125,-0.00054931640625,0.99365234375,-0.05168768646623145,-0.7174654762356658,0.0400955059775235
206,8.280060159999948,bno085,2.1484375,0.17578125,9.390625,0.0,0.0,0.0,0.008056640625,-0.11212158203125,-0.00054931640625,0.99365234375,-0.05168768646623145,-0.7174654762356658,0.0400955059775235
207,8.320055757000091,bno085,2.1484375,0.17578125,9.390625,0.0,0.0,0.0,0.008056640625,-0.11212158203125,-0.00054931640625,0.99365234375,-0.05168768646623145,-0.7174654762356658,0.0400955059775235
208,8.360059299000113,bno085,2.1484375,0.17578125,9.390625,0.0,0.0,0.0,0.008056640625,-0.11212158203125,-0.00054931640625,0.99365234375,-0.05168768646623145,-0.7174654762356658,0.0400955059775235
209,8.400058969999918,bno085,2.1484375,0.13671875,9.39453125,0.0,0.0,0.0,0.008056640625,-0.11212158203125,-0.00054931640625,0.99365234375,-0.05168768646623145,-0.7174654762356658,0.0400955059775235
210,8.440056975000061,bno085,2.1484375,0.13671875,9.39453125,0.0,0.0,0.0,0.00811767578125,-0.11212158203125,-0.00054931640625,0.99365234375,-0.04472723741173289,-0.7174748977076593,0.03931130094879052
211,8.480057387999977,bno085,2.1484375,0.13671875,9.39453125,0.0,0.0,0.0,0.00811767578125,-0.11212158203125,-0.00054931640625,0.99365234375,-0.04472723741173289,-0.7174748977076593,0.03931130094879052
212,8.520058411000036,bno085,2.1484375,0.13671875,9.39453125,0.0,0.0,0.0,0.00811767578125,-0.11212158203125,-0.00054931640625,0.99365234375,-0.04472723741173289,-0.7174748977076593,0.03931130094879052
213,8.560058544999947,bno085,2.1484375,0.17578125,9.390625,0.0,0.0,0.0,0.00811767578125,-0.11212158203125,-0.00054931640625,0.99365234375,-0.04472723741173289,-0.7174748977076593,0.03931130094879052
214,8.600057069000059,bno085,2.1484375,0.13671875,9.39453125,0.0,0.0,0.0,0.00811767578125,-0.11212158203125,-0.00054931640625,0.99365234375,-0.04472723741173289,-0.7174748977076593,0.03931130094879052
215,8.640055148000101,bno085,2.1484375,0.13671875,9.39453125,0.0,0.0,0.0,0.008056640625,-0.11212158203125,-0.00054931640625,0.99365234375,-0.05168768646623145,-0.7174654762356658,0.0400955059775235
216,8.68005878200006,bno085,2.1484375,0.17578125,9.390625,0.0,0.0,0.0,0.008056640625,-0.11212158203125,-0.00054931640625,0.99365234375,-0.05168768646623145,-0.7174654762356658,0.0400955059775235
217,8.720059582999966,bno085,2.1484375,0.13671875,9.39453125,0.0,0.0,0.0,0.00799560546875,-0.11212158203125,-0.00054931640625,0.99365234375,-0.05864812222474595,-0.7174560546255601,0.04087971104181244
218,8.760057365999955,bno085,2.1484375,0.17578125,9.390625,0.0,0.0,0.0,0.00799560546875,-0.11212158203125,-0.00054931640625,0.99365234375,-0.05864812222474595,-0.7174560546255601,0.04087971104181244
219,8.800059388999898,bno085,2.1484375,0.17578125,9.390625,0.0,0.0,0.0,0.00799560546875,-0.11212158203125,-0.00054931640625,0.99365234375,-0.05864812222474595,-0.7174560546255601,0.04087971104181244
220,8.840057356999978,bno085,2.1484375,0.17578125,9.390625,0.0,0.0,0.0,0.00799560546875,-0.11212158203125,-0.00054931640625,0.99365234375,-0.05864812222474595,-0.7174560546255601,0.04087971104181244
221,8.880057065000074,bno085,2.109375,0.17578125,9.390625,0.0,0.0,0.0,0.0079345703125,-0.11212158203125,-0.00054931640625,0.99365234375,-0.06560854478599203,-0.717446632877409,0.0416639161413635
222,8.920057756000006,bno085,2.109375,0.17578125,9.390625,0.0,0.0,0.0,0.00799560546875,-0.11212158203125,-0.00054931640625,0.99365234375,-0.05864812222474595,-0.7174560546255601,0.04087971104181244
223,8.960058019999906,bno085,2.1484375,0.13671875,9.39453125,0.0,0.0,0.0,0.00799560546875,-0.11212158203125,-0.00054931640625,0.99365234375,-0.05864812222474595,-0.7174560546255601,0.04087971104181244
224,9.000058987000102,bno085,2.1484375,0.17578125,9.390625,0.0,0.0,0.0,0.00799560546875,-0.11212158203125,-0.00054931640625,0.99365234375,-0.05864812222474595,-0.7174560546255601,0.04087971104181244
225,9.040057400000023,bno085,2.1484375,0.13671875,9.39453125,0.0,0.0,0.0,0.00799560546875,-0.112060546875,-0.00054931640625,0.99365234375,-0.05866358546046522,-0.7103317453958156,0.040815943838244585
226,9.080058348999955,bno085,2.1484375,0.13671875,9.39453125,0.0,0.0,0.0,0.00799560546875,-0.112060546875,-0.00054931640625,0.99365234375,-0.05866358546046522,-0.7103317453958156,0.040815943838244585
227,9.120058668999945,bno085,2.1484375,0.17578125,9.390625,0.0,0.0,0.0,0.00799560546875,-0.112060546875,-0.00054931640625,0.99365234375,-0.05866358546046522,-0.7103317453958156,0.040815943838244585
228,9.160059359000115,bno085,2.1484375,0.13671875,9.39453125,0.0,0.0,0.0,0.00799560546875,-0.112060546875,-0.00054931640625,0.99365234375,-0.05866358546046522,-0.7103317453958156,0.040815943838244585
229,9.20005788200001,bno085,2.1484375,0.13671875,9.39453125,0.0,0.0,0.0,0.00799560546875,-0.11199951171875,-0.00054931640625,0.99365234375,-0.058679049513647275,-0.703207621398464,0.040752177580147965
230,9.240055256999995,bno085,2.109375,0.13671875,9.39453125,0.0,0.0,0.0,0.00799560546875,-0.11199951171875,-0.00054931640625,0.99365234375,-0.058679049513647275,-0.703207621398464,0.040752177580147965
231,9.280059187999996,bno085,2.1484375,0.13671875,9.39453125,0.0,0.0,0.0,0.0079345703125,-0.11199951171875,-0.00054931640625,0.99365234375,-0.06563927558782048,-0.7031982136145242,0.04153552708068556
232,9.320058803999927,bno085,2.109375,0.17578125,9.390625,0.0,0.0,0.0,0.0079345703125,-0.11199951171875,-0.00054931640625,0.99365234375,-0.06563927558782048,-0.7031982136145242,0.04153552708068556
233,9.360056290000102,bno085,2.1484375,0.17578125,9.390625,0.0,0.0,0.0,0.0079345703125,-0.1119384765625,-0.00048828125,0.99365234375,-0.06495631327014176,-0.6960100646065925,0.04842150877347743
234,9.400057628000013,bno085,2.1484375,0.13671875,9.43359375,0.0,0.0,0.0,0.0079345703125,-0.1119384765625,-0.00048828125,0.99365234375,-0.06495631327014176,-0.6960100646065925,0.04842150877347743
235,9.440057521999961,bno085,2.109375,0.17578125,9.390625,0.0,0.0,0.0,0.0079345703125,-0.1119384765625,-0.00048828125,0.99365234375,-0.06495631327014176,-0.6960100646065925,0.04842150877347743
236,9.480058823000036,bno085,2.109375,0.17578125,9.4296875,0.0,0.0,0.0,0.00787353515625,-0.1119384765625,-0.00048828125,0.99371337890625,-0.07186310990619371,-0.6967634705500863,0.049214303390993495
237,9.520055143000036,bno085,2.1484375,0.13671875,9.39453125,0.0,0.0,0.0,0.00787353515625,-0.1119384765625,-0.00048828125,0.99371337890625,-0.07186310990619371,-0.6967634705500863,0.049214303390993495
238,9.560058518000005,bno085,2.1484375,0.17578125,9.390625,0.0,0.0,0.0,0.00787353515625,-0.1119384765625,-0.00048828125,0.99371337890625,-0.07186310990619371,-0.6967634705500863,0.049214303390993495
239,9.600060004999932,bno085,2.1484375,0.13671875,9.39453125,0.0,0.0,0.0,0.00787353515625,-0.1119384765625,-0.00048828125,0.99371337890625,-0.07186310990619371,-0.6967634705500863,0.049214303390993495
240,9.640058139000075,bno085,2.1484375,0.13671875,9.39453125,0.0,0.0,0.0,0.00787353515625,-0.11187744140625,-0.00048828125,0.99371337890625,-0.07187796328707523,-0.6896393366588719,0.049149668325260264
241,9.68005893999998,bno085,2.109375,0.17578125,9.390625,0.0,0.0,0.0,0.00787353515625,-0.11187744140625,-0.00048828125,0.99371337890625,-0.07187796328707523,-0.6896393366588719,0.049149668325260264
242,9.720055241999944,bno085,2.1484375,0.13671875,9.39453125,0.0,0.0,0.0,0.00787353515625,-0.11187744140625,-0.00048828125,0.99371337890625,-0.07187796328707523,-0.6896393366588719,0.049149668325260264
243,9.760057023999934,bno085,2.1484375,0.13671875,9.39453125,0.0,0.0,0.0,0.0078125,-0.11187744140625,-0.00048828125,0.99371337890625,-0.07883836412773702,-0.6896295255012891,0.04993215298454699
244,9.800057343999924,bno085,2.1484375,0.17578125,9.390625,0.0,0.0,0.0,0.0078125,-0.11187744140625,-0.00048828125,0.99371337890625,-0.07883836412773702,-0.6896295255012891,0.04993215298454699
245,9.840058293000084,bno085,2.1484375,0.13671875,9.39453125,0.0,0.0,0.0,0.0078125,-0.11187744140625,-0.00048828125,0.99371337890625,-0.07883836412773702,-0.6896295255012891,0.04993215298454699
246,9.880058371999894,bno085,2.1484375,0.17578125,9.4296875,0.0,0.0,0.0,0.0078125,-0.11181640625,-0.00048828125,0.99371337890625,-0.07885312064478187,-0.682505583522207,0.049867091228234156
247,9.920059025,bno085,2.1484375,0.17578125,9.390625,0.0,0.0,0.0,0.0078125,-0.11181640625,-0.00048828125,0.99371337890625,-0.07885312064478187,-0.682505583522207,0.049867091228234156
248,9.960060659999954,bno085,2.1484375,0.17578125,9.390625,0.0,0.0,0.0,0.0078125,-0.11181640625,-0.00048828125,0.99371337890625,-0.07885312064478187,-0.682505583522207,0.049867091228234156
