sample,time_s,sensor,accel_x_mps2,accel_y_mps2,accel_z_mps2,gyro_x_radps,gyro_y_radps,gyro_z_radps,quat_i,quat_j,quat_k,quat_real,roll_deg,pitch_deg,yaw_deg
0,0.04005546699954721,bno085,-2.0234375,0.09765625,9.3828125,0.0,0.0,0.0,-0.0267333984375,0.0902099609375,0.2833251953125,0.95440673828125,-0.00010485171864457221,-3.1072430829697225e-05,9.893319939857625e-06
1,0.08005580399913015,bno085,-2.0234375,0.09765625,9.3828125,0.00390625,0.001953125,0.0,-0.02825927734375,0.095458984375,0.2999267578125,0.94873046875,-0.1741714574954163,0.6339716988202081,1.9974749420855389
2,0.12005478999890329,bno085,-2.328125,0.59375,8.88671875,-0.072265625,-0.1015625,-0.009765625,-0.02825927734375,0.095458984375,0.2999267578125,0.94873046875,-0.1741714574954163,0.6339716988202081,1.9974749420855389
3,0.16005503499945917,bno085,-3.59375,1.20703125,9.53125,0.935546875,-0.95703125,1.349609375,-0.02679443359375,0.0843505859375,0.3134765625,0.94549560546875,-0.5559486944478671,-0.621731406126893,3.5734219770109843
4,0.20005646599929605,bno085,-2.40625,-0.59375,9.875,0.935546875,-0.95703125,1.349609375,0.00396728515625,0.05389404296875,0.3538818359375,0.9337158203125,1.0117880601774283,-5.062520740035871,8.565164890365704
5,0.24005504399974598,bno085,-0.4140625,-0.62890625,8.84375,-0.14453125,3.13671875,-1.017578125,-0.014404296875,0.10247802734375,0.350341796875,0.930908203125,1.0498115627753393,0.9058792249728107,8.274095812047197
6,0.28005469599884236,bno085,-0.64453125,1.8203125,9.5703125,-0.6796875,-1.208984375,0.962890625,-0.024658203125,0.089111328125,0.36981201171875,0.92449951171875,-0.80421969094557,-0.07039485686599072,10.46282180823046
7,0.32005586699960986,bno085,-1.640625,1.1328125,9.69140625,-0.271484375,0.337890625,0.0390625,-0.024658203125,0.089111328125,0.36981201171875,0.92449951171875,-0.80421969094557,-0.07039485686599072,10.46282180823046
8,0.36005481599931954,bno085,-1.48828125,0.2109375,9.80859375,1.224609375,1.080078125,0.109375,-0.027587890625,0.0872802734375,0.3731689453125,0.9232177734375,-1.2304456613197212,-0.13034714495464295,10.837062482777913
9,0.4000548939984583,bno085,-1.44921875,-2.0078125,9.1875,1.224609375,1.080078125,0.109375,-0.01348876953125,0.10406494140625,0.38330078125,0.91766357421875,0.8722871617781321,1.0714695776196177,12.339771600775101
10,0.440055750999818,bno085,-1.90625,-0.015625,9.15234375,-0.982421875,0.650390625,0.162109375,-0.031494140625,0.110595703125,0.38336181640625,0.9163818359375,-0.7410593859912527,2.5634745279171205,12.195767379584398
11,0.4800546989990835,bno085,-1.79296875,0.44140625,9.38671875,-0.34765625,-0.740234375,0.482421875,-0.03472900390625,0.089111328125,0.39599609375,0.91326904296875,-2.1597068423493075,0.4786068697197363,13.597541415886012
12,0.5200554809998721,bno085,-1.90625,0.671875,9.1875,0.001953125,0.013671875,0.08203125,-0.03472900390625,0.089111328125,0.39599609375,0.91326904296875,-2.1597068423493075,0.4786068697197363,13.597541415886012
13,0.5600554299999203,bno085,-1.83203125,-0.32421875,9.53125,-0.109375,-0.376953125,0.61328125,-0.0323486328125,0.08294677734375,0.40216064453125,0.9112548828125,-2.2599709402310584,-0.249353782582036,14.363538282177705
14,0.6000548419997358,bno085,-1.83203125,-0.015625,9.46484375,-0.109375,-0.376953125,0.61328125,-0.027099609375,0.06976318359375,0.4130859375,0.9075927734375,-2.461066875395416,-1.8190371932500011,15.73683732974394
15,0.6400544389998686,bno085,-1.2578125,0.25,9.49609375,-0.099609375,-0.177734375,0.767578125,-0.0257568359375,0.064453125,0.4296875,0.9002685546875,-2.803874432542626,-2.3325630015044134,17.830239230019224
16,0.6800543879999168,bno085,-1.37109375,0.17578125,9.4609375,0.033203125,-0.044921875,-0.15234375,-0.0245361328125,0.0635986328125,0.425537109375,0.90234375,-2.661599922740368,-2.5085724470658683,17.314625474840586
17,0.7200539659988863,bno085,-1.44921875,0.05859375,9.57421875,0.001953125,0.00390625,0.0,-0.0242919921875,0.0634765625,0.424560546875,0.90283203125,-2.6286398978014573,-2.5394232587862122,17.19350055582679
18,0.7600545069999498,bno085,-1.6015625,0.13671875,9.6484375,0.021484375,-0.046875,0.0078125,-0.0242919921875,0.0634765625,0.424560546875,0.90283203125,-2.6286398978014573,-2.5394232587862122,17.19350055582679
19,0.8000552889989194,bno085,-1.44921875,0.17578125,9.69140625,0.443359375,-0.61328125,-0.033203125,-0.02044677734375,0.0614013671875,0.42431640625,0.9031982421875,-2.329016298027067,-2.9435558278043232,17.191103932057306
20,0.8400548679983331,bno085,-1.06640625,0.3671875,9.8046875,0.443359375,-0.61328125,-0.033203125,-0.00067138671875,0.05047607421875,0.4217529296875,0.9052734375,-0.7762107112358342,-5.050927467302522,16.992514176217124
21,0.8800542429999041,bno085,-1.02734375,0.3671875,9.80859375,0.005859375,-0.01953125,-0.001953125,0.00457763671875,0.0477294921875,0.420166015625,0.90618896484375,-0.3394903840872744,-5.596147516223932,16.821551588228175
22,0.920053616999212,bno085,-0.71875,0.55859375,9.80859375,0.328125,-0.42578125,-0.01953125,0.0169677734375,0.04132080078125,0.417724609375,0.907470703125,0.6785204220533175,-6.865852368407825,16.571132686590243
23,0.9600539919993025,bno085,-0.68359375,0.59375,9.80859375,0.103515625,-0.14453125,-0.00390625,0.0169677734375,0.04132080078125,0.417724609375,0.907470703125,0.6785204220533175,-6.865852368407825,16.571132686590243
24,1.0000555889982934,bno085,-0.64453125,0.59375,9.84375,0.087890625,-0.12109375,-0.025390625,0.02197265625,0.038818359375,0.4169921875,0.90777587890625,1.0911156707638188,-7.367622793873339,16.497867578372862
25,1.0400545559987222,bno085,-0.60546875,0.55859375,9.84765625,0.087890625,-0.12109375,-0.025390625,0.02783203125,0.035888671875,0.41455078125,0.90887451171875,1.6071706254181943,-7.956754423760423,16.20999160216576
26,1.0800554859997646,bno085,-0.26171875,0.78515625,9.8046875,-0.123046875,0.09765625,-0.466796875,0.02703857421875,0.03607177734375,0.40606689453125,0.9127197265625,1.7048344289627468,-7.9119309428182305,15.130898634943147
27,1.1200537499989878,bno085,-0.60546875,0.44140625,9.84375,-0.33984375,0.349609375,-0.494140625,0.0186767578125,0.03973388671875,0.398193359375,0.916259765625,1.1563281937498693,-7.153165907611566,14.108143622355486
28,1.1600547909984016,bno085,-0.375,0.671875,9.8046875,-0.48046875,0.568359375,-0.58203125,0.0186767578125,0.03973388671875,0.398193359375,0.916259765625,1.1563281937498693,-7.153165907611566,14.108143622355486
29,1.2000566099995922,bno085,-0.56640625,0.44140625,9.87890625,-0.109375,0.126953125,0.001953125,0.00494384765625,0.04669189453125,0.3878173828125,0.9205322265625,0.2230797428244401,-5.821297786526244,12.752282196103577
30,1.2400560779988155,bno085,-0.64453125,0.25,9.87890625,-0.109375,0.126953125,0.001953125,0.00146484375,0.0484619140625,0.38726806640625,0.92071533203125,-0.05431196850308782,-5.480946024676221,12.669030848733717
31,1.2800605819993507,bno085,-0.60546875,0.2890625,9.8046875,0.021484375,-0.041015625,-0.001953125,0.0018310546875,0.04815673828125,0.38623046875,0.921142578125,-0.011089368925853259,-5.532170424956433,12.540326050775368
32,1.3200554009999905,bno085,-0.4921875,0.25,9.84375,0.0078125,-0.0078125,-0.16015625,0.0003662109375,0.048828125,0.3817138671875,0.9229736328125,-0.057070904495871676,-5.40796554358969,11.970423181571855
33,1.3600553129999753,bno085,-0.453125,0.17578125,9.84375,-0.2578125,0.322265625,-0.240234375,0.0003662109375,0.048828125,0.3817138671875,0.9229736328125,-0.057070904495871676,-5.40796554358969,11.970423181571855
34,1.4000546879997273,bno085,-0.4921875,0.2890625,9.87890625,-0.09765625,0.111328125,-0.001953125,-0.00604248046875,0.05206298828125,0.37841796875,0.92413330078125,-0.5358630442543078,-4.7943902490141515,11.530162350236013
35,1.4400546729993948,bno085,-0.60546875,0.09765625,9.87890625,-0.09765625,0.111328125,-0.001953125,-0.00946044921875,0.05377197265625,0.3780517578125,0.9241943359375,-0.8167159188028814,-4.4657373582416335,11.468233617720408
36,1.4800547699996969,bno085,-0.796875,0.01953125,9.875,-0.2109375,0.259765625,-0.03125,-0.01617431640625,0.0574951171875,0.37738037109375,0.92413330078125,-1.3535992420887843,-3.781767148575654,11.347810690316601
37,1.52005447800002,bno085,-0.9140625,0.01953125,9.84375,-0.00390625,0.00390625,-0.001953125,-0.0179443359375,0.0584716796875,0.37701416015625,0.9241943359375,-1.4927611796631017,-3.6028050566596264,11.292370059373443
38,1.5600545379984396,bno085,-0.94921875,-0.015625,9.84375,-0.00390625,0.005859375,0.001953125,-0.0179443359375,0.0584716796875,0.37701416015625,0.9241943359375,-1.4927611796631017,-3.6028050566596264,11.292370059373443
39,1.6000545059996512,bno085,-0.94921875,-0.015625,9.80859375,-0.001953125,-0.009765625,0.001953125,-0.01812744140625,0.05859375,0.37689208984375,0.92425537109375,-1.5051694398092381,-3.5823364253226306,11.276926771676735
40,1.6400552509985573,bno085,-0.9140625,-0.015625,9.84765625,-0.001953125,-0.009765625,0.001953125,-0.01812744140625,0.0584716796875,0.37664794921875,0.92431640625,-1.5062665548078489,-3.5963857917363944,11.24505825504656
41,1.6800561809995997,bno085,-0.875,-0.015625,9.84765625,-0.001953125,-0.001953125,-0.001953125,-0.01812744140625,0.05841064453125,0.37628173828125,0.92449951171875,-1.5035421640976747,-3.604240155967075,11.200568093359914
42,1.7200557779997325,bno085,-0.9140625,-0.0546875,9.84765625,-0.005859375,0.013671875,-0.001953125,-0.01849365234375,0.05865478515625,0.37603759765625,0.924560546875,-1.5278635498915414,-3.563464257352677,11.167822915967557
43,1.7600550779989135,bno085,-0.94921875,-0.0546875,9.84375,0.00390625,-0.005859375,0.0,-0.01849365234375,0.05865478515625,0.37603759765625,0.924560546875,-1.5278635498915414,-3.563464257352677,11.167822915967557
44,1.8000549159987713,bno085,-0.9140625,-0.0546875,9.84765625,0.001953125,0.0,0.001953125,-0.0185546875,0.05859375,0.37591552734375,0.92462158203125,-1.5351330754777741,-3.567792316757373,11.152446836631604
45,1.840055216998735,bno085,-0.9140625,-0.0546875,9.84765625,0.001953125,0.0,0.001953125,-0.01849365234375,0.05859375,0.37567138671875,0.9246826171875,-1.5246129270018067,-3.571461218387617,11.121477256929916
46,1.8800550169999042,bno085,-0.94921875,-0.0546875,9.84375,-0.001953125,0.0,0.001953125,-0.01824951171875,0.05145263671875,0.37579345703125,0.92510986328125,-1.8069737204671803,-4.341562717782903,11.12841129298472
47,1.9200552989987045,bno085,-0.94921875,-0.0546875,9.84375,0.0,0.00390625,0.0,-0.018310546875,0.050537109375,0.37603759765625,0.925048828125,-1.8565233010762026,-4.435349093662612,11.156923051955598
48,1.960054952000064,bno085,-0.98828125,-0.0546875,9.84765625,0.0,0.001953125,0.001953125,-0.018310546875,0.050537109375,0.37603759765625,0.925048828125,-1.8565233010762026,-4.435349093662612,11.156923051955598
49,2.0000557149996894,bno085,-0.98828125,-0.0546875,9.84765625,0.0,-0.001953125,-0.001953125,-0.01837158203125,0.0501708984375,0.3760986328125,0.925048828125,-1.8797222939977485,-4.471420828929289,11.16392150639173
50,2.0400556459990185,bno085,-0.98828125,-0.0546875,9.84765625,0.0,-0.001953125,-0.001953125,-0.01837158203125,0.050048828125,0.37628173828125,0.92498779296875,-1.888000152848002,-4.483614219016309,11.18669084409861
51,2.0800541499993415,bno085,-0.98828125,-0.0546875,9.84765625,0.001953125,-0.001953125,0.0,-0.01837158203125,0.04986572265625,0.37646484375,0.9249267578125,-1.8988764973732972,-4.502301708247606,11.209309255710687
52,2.120054376999178,bno085,-0.98828125,-0.0546875,9.84765625,-0.001953125,0.0,0.001953125,-0.01837158203125,0.04974365234375,0.37652587890625,0.92486572265625,-1.9047378619005408,-4.515079969761409,11.21543927191361
53,2.1600543439999456,bno085,-1.02734375,-0.0546875,9.84765625,0.001953125,0.001953125,0.001953125,-0.01837158203125,0.04974365234375,0.37652587890625,0.92486572265625,-1.9047378619005408,-4.515079969761409,11.21543927191361
54,2.2000584959987464,bno085,-1.06640625,-0.0546875,9.84375,-0.00390625,0.0,0.001953125,-0.0184326171875,0.04962158203125,0.37664794921875,0.92486572265625,-1.9188074642417579,-4.5248498630401075,11.231436303237883
55,2.240055222999217,bno085,-1.10546875,-0.0546875,9.84375,-0.00390625,0.0,0.001953125,-0.0184326171875,0.049560546875,0.37677001953125,0.9248046875,-1.9232946615044726,-4.530830669374756,11.246054366973324
56,2.280055689998335,bno085,-1.06640625,-0.09375,9.84765625,0.001953125,-0.001953125,0.001953125,-0.01849365234375,0.04937744140625,0.37689208984375,0.92474365234375,-1.939426897045195,-4.547168336647221,11.260025008297086
57,2.3200563239988696,bno085,-0.98828125,-0.09375,9.84375,0.001953125,-0.009765625,0.0,-0.0184326171875,0.04913330078125,0.376953125,0.92474365234375,-1.9445813242074328,-4.575486036719767,11.268098895863782
58,2.3600555139983044,bno085,-0.98828125,-0.0546875,9.84765625,0.00390625,-0.005859375,0.0,-0.0184326171875,0.04913330078125,0.376953125,0.92474365234375,-1.9445813242074328,-4.575486036719767,11.268098895863782
59,2.400055258998691,bno085,-0.94921875,-0.09375,9.84765625,0.00390625,0.009765625,-0.001953125,-0.01837158203125,0.04901123046875,0.37701416015625,0.92474365234375,-1.9445453307893574,-4.590812765403222,11.276475959210051
60,2.4400557819990354,bno085,-0.94921875,-0.24609375,9.84765625,0.00390625,0.009765625,-0.001953125,-0.01861572265625,0.0489501953125,0.37701416015625,0.92474365234375,-1.972945543983928,-4.586772950951891,11.274954566545034
61,2.480055063999316,bno085,1.1171875,-3.46484375,8.4609375,-0.076171875,-0.2578125,-0.046875,-0.0103759765625,0.02655029296875,0.38336181640625,0.92315673828125,-2.1935508634040493,-7.292804755147579,12.116572820431953
62,2.5200554379989626,bno085,-0.453125,-0.40234375,9.76953125,-0.025390625,-0.07421875,0.890625,-0.00372314453125,0.00823974609375,0.4049072265625,0.914306640625,-2.775519646259304,-9.40381928459586,14.906570895164606
63,2.5600548689999414,bno085,-0.875,1.9375,9.84375,-0.029296875,0.044921875,0.171875,-0.00372314453125,0.00823974609375,0.4049072265625,0.914306640625,-2.775519646259304,-9.40381928459586,14.906570895164606
64,2.600055076998615,bno085,-0.4921875,0.44140625,9.84765625,-0.005859375,-0.001953125,0.001953125,-0.004150390625,0.00787353515625,0.40972900390625,0.91217041015625,-2.9429063055193496,-9.392270939153306,15.51973214735222
65,2.6400542479987053,bno085,-0.71875,-0.2109375,9.87890625,-0.005859375,-0.001953125,0.001953125,-0.004150390625,0.00726318359375,0.4093017578125,0.912353515625,-2.9625363643842832,-9.458697818829775,15.467768032814075
66,2.680053844998838,bno085,-0.64453125,-0.1328125,9.87890625,0.0,0.0,-0.001953125,-0.00421142578125,0.0072021484375,0.40936279296875,0.912353515625,-2.973350528184338,-9.461929747152556,15.476481247825369
67,2.720055311998294,bno085,-0.71875,-0.1328125,9.87890625,0.0,0.0,-0.001953125,-0.0042724609375,0.0072021484375,0.409423828125,0.91229248046875,-2.980775310805313,-9.458553084169308,15.483001216275511
68,2.76005433499995,bno085,-0.71875,-0.1328125,9.87890625,-0.005859375,0.00390625,0.0,-0.0042724609375,0.0072021484375,0.409423828125,0.91229248046875,-2.980775310805313,-9.458553084169308,15.483001216275511
69,2.800054301998898,bno085,-0.71875,-0.1328125,9.84375,-0.001953125,0.0,0.001953125,-0.0045166015625,0.007080078125,0.40948486328125,0.91229248046875,-3.0135541532957046,-9.459583961156756,15.49144954353685
70,2.8400547689998348,bno085,-0.68359375,-0.1328125,9.84375,-0.001953125,0.0,0.001953125,-0.00469970703125,0.0069580078125,0.40948486328125,0.91229248046875,-3.0384253556411824,-9.46375870291333,15.491457179484446
71,2.880054625999037,bno085,-0.71875,-0.1328125,9.87890625,0.00390625,-0.001953125,-0.001953125,-0.0047607421875,0.00689697265625,0.4095458984375,0.9122314453125,-3.0487561105380636,-9.466748673376033,15.498252159986174
72,2.920054407999487,bno085,-0.71875,-0.1328125,9.87890625,0.0,-0.001953125,0.0,-0.0048828125,0.0068359375,0.40972900390625,0.91217041015625,-3.0685574600572885,-9.46629582179578,15.522125891304002
73,2.9600554119988374,bno085,-0.71875,-0.1328125,9.84375,0.001953125,-0.001953125,-0.001953125,-0.0048828125,0.0068359375,0.40972900390625,0.91217041015625,-3.0685574600572885,-9.46629582179578,15.522125891304002
74,3.000054508998801,bno085,-0.71875,-0.1328125,9.84375,-0.00390625,-0.00390625,0.0,-0.0048828125,0.00689697265625,0.40972900390625,0.91217041015625,-3.065648080684887,-9.459923572452862,15.521850734436732
75,3.040055642999505,bno085,-0.71875,-0.1328125,9.87890625,-0.00390625,-0.00390625,0.0,-0.0096435546875,0.0140380859375,0.40960693359375,0.912109375,-3.2180757709497017,-8.491818469084802,15.45857503096967
76,3.0800552949986013,bno085,-0.68359375,-0.1328125,9.87890625,0.001953125,0.0,0.001953125,-0.01025390625,0.0150146484375,0.4093017578125,0.9122314453125,-3.228885972205411,-8.363266585326228,15.413832147457018
77,3.120054317998438,bno085,-0.68359375,-0.1328125,9.87890625,0.001953125,0.001953125,0.001953125,-0.0103759765625,0.01531982421875,0.4088134765625,0.91241455078125,-3.216764888588864,-8.328827731382399,15.34934600081735
78,3.1600549519989727,bno085,-0.71875,-0.1328125,9.87890625,0.0,0.0,0.0,-0.0103759765625,0.01531982421875,0.4088134765625,0.91241455078125,-3.216764888588864,-8.328827731382399,15.34934600081735
79,3.200056585999846,bno085,-0.71875,-0.1328125,9.87890625,0.001953125,-0.001953125,0.0,-0.010498046875,0.01544189453125,0.4085693359375,0.91253662109375,-3.218779500069496,-8.312032933788428,15.317967635886783
80,3.240055238999048,bno085,-0.71875,-0.1328125,9.87890625,0.001953125,-0.001953125,0.0,-0.012451171875,0.01837158203125,0.408447265625,0.9124755859375,-3.2804790085858104,-7.9152469243787476,15.282359255192533
81,3.2800555209996674,bno085,-0.68359375,-0.1328125,9.84375,0.001953125,-0.001953125,0.001953125,-0.01385498046875,0.02044677734375,0.408447265625,0.9124755859375,-3.3289889929544993,-7.6328652780455695,15.270967442646114
82,3.320054376999906,bno085,-0.68359375,-0.1328125,9.84375,-0.001953125,-0.001953125,0.0,-0.01416015625,0.02081298828125,0.40814208984375,0.91259765625,-3.33737992327147,-7.582379840101453,15.229726670693875
83,3.3600558999987697,bno085,-0.68359375,-0.1328125,9.87890625,-0.001953125,-0.001953125,0.0,-0.01416015625,0.02081298828125,0.40814208984375,0.91259765625,-3.33737992327147,-7.582379840101453,15.229726670693875
84,3.4000547189989447,bno085,-0.68359375,-0.1328125,9.87890625,-0.0078125,0.0,0.0,-0.01422119140625,0.02093505859375,0.4078369140625,0.9127197265625,-3.3318387790946242,-7.56879768080253,15.190130009945467
85,3.4400548899993737,bno085,-0.64453125,-0.1328125,9.84375,-0.0078125,0.0,0.0,-0.01544189453125,0.02252197265625,0.40777587890625,0.91265869140625,-3.3825673701814205,-7.346230982741624,15.170641679194066
86,3.480055227999401,bno085,-0.68359375,-0.1328125,9.87890625,0.0,-0.001953125,0.0,-0.015625,0.0228271484375,0.407470703125,0.91278076171875,-3.3812650003819367,-7.3078316700180155,15.130148980549679
87,3.5200558429987723,bno085,-0.68359375,-0.1328125,9.87890625,0.0,0.0,0.001953125,-0.01568603515625,0.0228271484375,0.4072265625,0.91290283203125,-3.382989554812396,-7.3066742595643195,15.099482557242569
88,3.560054624998884,bno085,-0.68359375,-0.1328125,9.87890625,0.0,0.0,0.0,-0.01568603515625,0.0228271484375,0.4072265625,0.91290283203125,-3.382989554812396,-7.3066742595643195,15.099482557242569
89,3.600054888998784,bno085,-0.68359375,-0.1328125,9.87890625,0.00390625,0.0,-0.001953125,-0.01568603515625,0.02294921875,0.40692138671875,0.91302490234375,-3.3712091131297335,-7.2959375752733795,15.06021319983642
90,3.640054652998515,bno085,-0.71875,-0.1328125,9.87890625,0.00390625,0.0,-0.001953125,-0.015869140625,0.02325439453125,0.4068603515625,0.9130859375,-3.3751479117979923,-7.255979090472474,15.052086846164004
91,3.6800576009991346,bno085,-0.71875,-0.1328125,9.87890625,0.00390625,0.001953125,0.0,-0.01611328125,0.0235595703125,0.4068603515625,0.91302490234375,-3.3857735078018445,-7.212585625219119,15.04844733338319
92,3.7200586239996483,bno085,-0.7578125,-0.1328125,9.87890625,0.005859375,-0.001953125,0.0,-0.01617431640625,0.023681640625,0.40655517578125,0.91314697265625,-3.380397732594136,-7.19901260611671,15.008959626577202
93,3.7600575359992945,bno085,-0.7578125,-0.1328125,9.87890625,-0.001953125,0.0,-0.001953125,-0.01617431640625,0.023681640625,0.40655517578125,0.91314697265625,-3.380397732594136,-7.19901260611671,15.008959626577202
94,3.8000556329989195,bno085,-0.7578125,-0.1328125,9.87890625,-0.00390625,0.0,0.0,-0.01629638671875,0.02398681640625,0.406494140625,0.9132080078125,-3.37800639952942,-7.1618839041090645,15.00111140375524
95,3.8400572669997928,bno085,-0.7578125,-0.1328125,9.87890625,-0.00390625,0.0,0.0,-0.0166015625,0.0242919921875,0.406494140625,0.9132080078125,-3.3955802294354513,-7.115780375759008,14.999152027180529
96,3.8800574929991853,bno085,-0.7578125,-0.1328125,9.87890625,-0.001953125,-0.001953125,0.001953125,-0.01678466796875,0.02435302734375,0.40618896484375,0.913330078125,-3.405823796269743,-7.1029369676138145,14.959322539634295
97,3.9200575899994874,bno085,-0.71875,-0.1328125,9.87890625,-0.001953125,-0.001953125,0.001953125,-0.0169677734375,0.02459716796875,0.40606689453125,0.913330078125,-3.4106889479869795,-7.069615729350067,14.940914620550048
98,3.96005526099907,bno085,-0.64453125,-0.1328125,9.87890625,0.005859375,-0.009765625,-0.001953125,-0.0169677734375,0.02459716796875,0.40606689453125,0.913330078125,-3.4106889479869795,-7.069615729350067,14.940914620550048
99,4.000057283999922,bno085,-0.30078125,-0.171875,9.875,0.005859375,-0.013671875,-0.681640625,-0.01702880859375,0.0245361328125,0.40576171875,0.9134521484375,-3.413910878343005,-7.075218033484974,14.901882293136053
100,4.040057602998786,bno085,0.0078125,-0.36328125,10.1875,0.005859375,-0.013671875,-0.681640625,-0.0167236328125,0.0220947265625,0.40032958984375,0.91595458984375,-3.3908096745183176,-7.381675140916996,14.227822397153838
101,4.080056033999426,bno085,0.046875,-0.8203125,11.03125,-1.748046875,-1.578125,0.123046875,-0.033935546875,-0.02294921875,0.40533447265625,0.91326904296875,-7.4307969059508645,-11.257120254853092,15.128907360507181
102,4.120055704999686,bno085,0.046875,-0.36328125,12.0625,-0.283203125,-0.044921875,0.142578125,-0.042236328125,-0.03411865234375,0.40899658203125,0.910888671875,-8.93638937056764,-11.985390336985661,15.7189791581319
103,4.160054690999459,bno085,0.50390625,-0.2109375,11.22265625,0.734375,0.71484375,0.0546875,-0.042236328125,-0.03411865234375,0.40899658203125,0.910888671875,-8.93638937056764,-11.985390336985661,15.7189791581319
104,4.2000564169993595,bno085,0.50390625,-1.359375,10.68359375,0.673828125,1.025390625,0.080078125,-0.0361328125,-0.013916015625,0.4097900390625,0.911376953125,-7.323541025989413,-10.164069996045827,15.595583269057967
105,4.240054772999429,bno085,0.19921875,-1.2421875,10.03515625,0.673828125,1.025390625,0.080078125,-0.0340576171875,0.01434326171875,0.4088134765625,0.911865234375,-5.726585409582952,-7.324918466231092,15.253798667872825
106,4.280055314999117,bno085,-0.0703125,-1.3984375,9.65234375,0.49609375,0.734375,0.0390625,-0.031494140625,0.0361328125,0.4102783203125,0.91070556640625,-4.456247114126046,-5.153970181602196,15.35960993362002
107,4.320058855999378,bno085,-1.02734375,-0.2109375,9.4609375,0.43359375,0.10546875,0.42578125,-0.02447509765625,0.04541015625,0.41644287109375,0.90771484375,-3.3915091616947506,-4.469092176979769,16.164876613099374
108,4.360055100998579,bno085,-0.68359375,-0.1328125,8.76953125,0.28515625,-0.66015625,0.17578125,-0.01165771484375,0.036865234375,0.42138671875,0.90606689453125,-2.5611414038437714,-5.939939530023713,16.880190941145788
109,4.400055086998691,bno085,-0.875,0.01953125,9.34375,-0.14453125,-1.609375,0.275390625,-0.01165771484375,0.036865234375,0.42138671875,0.90606689453125,-2.5611414038437714,-5.939939530023713,16.880190941145788
110,4.4400549059992045,bno085,-0.22265625,0.13671875,9.2265625,-0.14453125,-1.609375,0.275390625,0.0008544921875,-0.00042724609375,0.4271240234375,0.9041748046875,-3.2207863299624258,-10.37658187891041,17.802243004903524
111,4.480055021998851,bno085,0.390625,0.17578125,9.46484375,0.37109375,-1.125,0.111328125,0.01861572265625,-0.0313720703125,0.42987060546875,0.90216064453125,-3.0285256992210767,-14.425935059483487,18.425690202442105
112,4.520058525999048,bno085,0.16015625,0.75,10.33984375,-0.021484375,0.087890625,-0.08203125,0.018798828125,-0.02789306640625,0.42919921875,0.902587890625,-2.811963778492185,-14.080640823312704,18.305492675698513
113,4.560057585998948,bno085,0.62109375,0.09765625,9.69140625,0.166015625,0.423828125,-0.126953125,0.018798828125,-0.02789306640625,0.42919921875,0.902587890625,-2.811963778492185,-14.080640823312704,18.305492675698513
114,4.600057608999123,bno085,0.62109375,-0.015625,9.421875,0.1796875,0.234375,-0.103515625,0.0186767578125,-0.0166015625,0.4267578125,0.904052734375,-2.184709489516898,-12.923838817288406,17.897112668828232
115,4.64005857599841,bno085,0.58203125,-0.1328125,9.76953125,0.517578125,0.1953125,0.4453125,0.01947021484375,-0.00909423828125,0.4246826171875,0.90509033203125,-1.6725139346471818,-12.197138443576199,17.579271124204585
116,4.6800577469985,bno085,0.6953125,-0.40234375,9.2265625,0.517578125,0.1953125,0.4453125,0.025146484375,-0.00067138671875,0.43182373046875,0.901611328125,-0.8420676623774908,-11.568191754162658,18.470105154755498
117,4.72005934399931,bno085,0.4296875,0.17578125,8.765625,-0.869140625,-0.1875,0.12109375,0.011474609375,-0.00958251953125,0.43487548828125,0.900390625,-2.776866909123345,-11.790901860415996,18.890070793295035
118,4.760059255999295,bno085,0.390625,0.328125,9.38671875,-0.716796875,-0.2734375,0.052734375,-0.00244140625,-0.02349853515625,0.43560791015625,0.89984130859375,-4.944740922773375,-12.521957987242715,19.079742544407242
119,4.800058389999322,bno085,0.54296875,-0.09375,9.84375,-0.5546875,-0.455078125,0.08203125,-0.00244140625,-0.02349853515625,0.43560791015625,0.89984130859375,-4.944740922773375,-12.521957987242715,19.079742544407242
120,4.840058782998312,bno085,0.8515625,-0.28515625,9.34375,-0.5546875,-0.455078125,0.08203125,-0.01177978515625,-0.03656005859375,0.43701171875,0.89862060546875,-6.628171843425102,-13.378729803075515,19.400693795653535
121,4.880057953998403,bno085,0.66015625,-0.24609375,9.5703125,-0.181640625,-0.544921875,0.138671875,-0.0111083984375,-0.0496826171875,0.44085693359375,0.8961181640625,-7.370540459783415,-14.7079096271642,20.088997187103928
122,4.920058013998641,bno085,0.96484375,0.13671875,9.9921875,0.5546875,-0.912109375,0.47265625,0.00750732421875,-0.062255859375,0.45074462890625,0.89044189453125,-6.4531296073542865,-16.826198467683106,21.591780113116847
123,4.960056889000043,bno085,1.30859375,-0.0546875,9.11328125,0.564453125,0.10546875,0.14453125,0.00750732421875,-0.062255859375,0.45074462890625,0.89044189453125,-6.4531296073542865,-16.826198467683106,21.591780113116847
124,5.00005774499914,bno085,1.078125,0.328125,9.3046875,0.3515625,0.26953125,-0.310546875,0.02069091796875,-0.0550537109375,0.4560546875,0.88800048828125,-4.864939672925106,-16.729333611230558,22.177588210859696
125,5.040058674998363,bno085,1.46484375,-0.62890625,10.15234375,0.287109375,0.296875,-0.04296875,0.02447509765625,-0.046630859375,0.45062255859375,0.89117431640625,-3.8427707270750466,-16.12290792659541,21.33396677880425
126,5.080058808998729,bno085,1.234375,-0.1328125,9.34765625,0.287109375,0.296875,-0.04296875,0.027587890625,-0.0386962890625,0.4483642578125,0.892578125,-3.0230704586017993,-15.493560714883358,20.936697833600462
127,5.120057942998756,bno085,1.00390625,0.25,9.3828125,-0.419921875,-0.056640625,-0.015625,0.0206298828125,-0.040771484375,0.447509765625,0.89312744140625,-3.8234046034351685,-15.353792235856465,20.848872690445013
128,5.160057373999734,bno085,0.96484375,0.17578125,10.03515625,-0.52734375,-0.12109375,0.1484375,0.0206298828125,-0.040771484375,0.447509765625,0.89312744140625,-3.8234046034351685,-15.353792235856465,20.848872690445013
129,5.200056192999909,bno085,0.96484375,0.05859375,9.2265625,-0.46484375,0.00390625,0.2578125,0.01025390625,-0.047607421875,0.44964599609375,0.89190673828125,-5.322107081587275,-15.494000470858795,21.22144043701708
130,5.240058326999133,bno085,0.96484375,-0.09375,9.26953125,-0.46484375,0.00390625,0.2578125,0.000244140625,-0.05279541015625,0.45501708984375,0.888916015625,-6.7899376044744555,-15.437459757629366,22.009681975347135
131,5.280056904999583,bno085,0.92578125,0.2109375,9.23046875,-0.171875,0.005859375,0.2578125,-0.004150390625,-0.0552978515625,0.46051025390625,0.88592529296875,-7.539376794815934,-15.38831776158765,22.779584045123926
132,5.320058094999695,bno085,1.078125,-0.24609375,9.265625,-0.013671875,-0.0546875,0.048828125,-0.00335693359375,-0.0557861328125,0.46173095703125,0.88525390625,-7.522604872348186,-15.463477685784309,22.950410689919664
133,5.360057987998516,bno085,1.15625,-0.015625,9.4609375,0.025390625,-0.10546875,0.013671875,-0.00335693359375,-0.0557861328125,0.46173095703125,0.88525390625,-7.522604872348186,-15.463477685784309,22.950410689919664
134,5.400061010999707,bno085,1.234375,-0.28515625,9.19140625,-0.025390625,-0.095703125,0.060546875,-0.001708984375,-0.05987548828125,0.46240234375,0.8846435546875,-7.611175643938918,-15.953663620243084,23.110809875181406
135,5.440057681998951,bno085,1.234375,-0.1328125,9.265625,-0.025390625,-0.095703125,0.060546875,-0.00079345703125,-0.06298828125,0.46356201171875,0.88385009765625,-7.734240471051285,-16.3000374292201,23.322236471041588
136,5.480057148999549,bno085,1.234375,-0.32421875,9.34375,0.353515625,0.087890625,-0.107421875,0.00439453125,-0.05914306640625,0.4622802734375,0.88470458984375,-6.9461252470108406,-16.207142438749454,23.080684889229353
137,5.520056356999703,bno085,1.26953125,-0.171875,9.0,0.123046875,-0.099609375,-0.0078125,0.0086669921875,-0.05841064453125,0.46148681640625,0.88519287109375,-6.446827221686675,-16.371796913101363,22.96343111239983
138,5.560058473000026,bno085,1.15625,0.05859375,9.3046875,0.125,-0.02734375,-0.08984375,0.0086669921875,-0.05841064453125,0.46148681640625,0.88519287109375,-6.446827221686675,-16.371796913101363,22.96343111239983
139,5.600055921999228,bno085,1.46484375,-0.1328125,9.34375,-0.169921875,0.083984375,0.01171875,0.01092529296875,-0.0584716796875,0.46014404296875,0.8858642578125,-6.179861983712043,-16.514067411889155,22.784067988596856
140,5.640056721998917,bno085,1.42578125,-0.24609375,9.84765625,-0.169921875,0.083984375,0.01171875,0.00714111328125,-0.059814453125,0.4609375,0.8853759765625,-6.665499471235786,-16.438280507265493,22.91298283711266
141,5.680056337998394,bno085,1.26953125,-0.28515625,9.6484375,0.185546875,0.18359375,-0.001953125,0.00775146484375,-0.05743408203125,0.462158203125,0.8848876953125,-6.5037924934527185,-16.216217906339423,23.0364399620015
142,5.720055082998442,bno085,1.078125,0.2109375,9.69140625,0.515625,0.212890625,-0.060546875,0.01556396484375,-0.04730224609375,0.46142578125,0.88580322265625,-5.111557398737064,-15.619351410216272,22.785029341283835
143,5.760056012999485,bno085,1.078125,0.01953125,9.00390625,0.865234375,0.439453125,-0.21875,0.01556396484375,-0.04730224609375,0.46142578125,0.88580322265625,-5.111557398737064,-15.619351410216272,22.785029341283835
144,5.8000565729998925,bno085,0.7734375,0.55859375,8.8046875,-0.01953125,0.400390625,-0.130859375,0.0281982421875,-0.030029296875,0.45819091796875,0.887939453125,-2.7715079264305675,-14.568178663529222,22.150298824828294
145,5.840055669999856,bno085,0.54296875,0.671875,8.421875,-0.01953125,0.400390625,-0.130859375,0.0255126953125,-0.02093505859375,0.45574951171875,0.88946533203125,-2.4801666571858356,-13.520924427854192,21.73492654705908
146,5.880056822999904,bno085,0.390625,0.78515625,8.54296875,-0.21875,0.23046875,-0.064453125,0.018310546875,-0.01763916015625,0.454345703125,0.8905029296875,-2.99737311526711,-12.820842051726236,21.511569312633018
147,5.92005708599936,bno085,0.54296875,0.48046875,9.04296875,-0.146484375,0.1484375,-0.05859375,0.0133056640625,-0.0162353515625,0.45306396484375,0.8912353515625,-3.3973462109003196,-12.427652390253566,21.32002333549078
148,5.960059016999367,bno085,0.50390625,0.25,8.9609375,-0.099609375,0.048828125,-0.017578125,0.0133056640625,-0.0162353515625,0.45306396484375,0.8912353515625,-3.3973462109003196,-12.427652390253566,21.32002333549078
149,6.000056409999161,bno085,0.66015625,0.2109375,9.34375,-0.205078125,0.05859375,0.044921875,0.01019287109375,-0.01605224609375,0.452392578125,0.8916015625,-3.686874086542522,-12.252994018959527,21.223180013803926
150,6.040057006999632,bno085,0.46875,0.2890625,8.9609375,-0.205078125,0.05859375,0.044921875,0.00567626953125,-0.01690673828125,0.452880859375,0.89141845703125,-4.204841218139799,-12.10175711058024,21.28633421422087
151,6.08005806699839,bno085,0.390625,0.328125,9.07421875,-0.29296875,-0.03125,0.0546875,0.0,-0.02044677734375,0.454345703125,0.890625,-5.010076774060091,-12.152804962899157,21.50068850668394
152,6.120056052999644,bno085,0.62109375,0.09765625,9.421875,-0.001953125,-0.0234375,-0.044921875,-0.00042724609375,-0.021728515625,0.45361328125,0.89093017578125,-5.1041245766583545,-12.267940385301463,21.415880255606346
153,6.1600584459993115,bno085,0.6953125,-0.0546875,9.46484375,-0.126953125,-0.0078125,0.013671875,-0.00042724609375,-0.021728515625,0.45361328125,0.89093017578125,-5.1041245766583545,-12.267940385301463,21.415880255606346
154,6.20005911699991,bno085,0.7734375,-0.1328125,9.609375,-0.16796875,0.052734375,0.0546875,-0.00286865234375,-0.0234375,0.45379638671875,0.89080810546875,-5.449832775246429,-12.312869044523536,21.453621814066462
155,6.240057510000042,bno085,0.62109375,-0.0546875,9.34765625,-0.01171875,0.025390625,0.048828125,-0.00689697265625,-0.02435302734375,0.45465087890625,0.89031982421875,-5.93053478310917,-12.186764345799235,21.5669035965729
156,6.280056699999477,bno085,0.54296875,-0.09375,9.34375,-0.01171875,0.025390625,0.048828125,-0.00787353515625,-0.02392578125,0.4559326171875,0.8896484375,-6.038492395352246,-12.07798609172377,21.7272403042233
157,6.320058074999906,bno085,0.54296875,-0.015625,9.265625,0.005859375,0.060546875,0.009765625,-0.00811767578125,-0.02264404296875,0.45648193359375,0.889404296875,-6.0070136415455835,-11.929136669937447,21.78426915024673
158,6.360058800999468,bno085,0.4296875,-0.1328125,9.00390625,-0.0078125,0.017578125,-0.03515625,-0.008056640625,-0.02178955078125,0.4560546875,0.8896484375,-5.94352198353663,-11.850481921088042,21.718906323274386
159,6.40005889799977,bno085,0.50390625,-0.0546875,9.19140625,0.080078125,0.0234375,-0.009765625,-0.008056640625,-0.02178955078125,0.4560546875,0.8896484375,-5.94352198353663,-11.850481921088042,21.718906323274386
160,6.440057550998972,bno085,0.50390625,-0.0546875,9.23046875,0.080078125,0.0234375,-0.009765625,-0.0069580078125,-0.02105712890625,0.4559326171875,0.8897705078125,-5.789385876020415,-11.835187786373984,21.69858321955607
161,6.480058387998724,bno085,0.50390625,-0.0546875,9.3046875,0.10546875,0.021484375,-0.013671875,-0.0050048828125,-0.019775390625,0.455810546875,0.88983154296875,-5.517993461800259,-11.808144729898185,21.672305369998824
162,6.520064262998858,bno085,0.62109375,-0.0546875,9.46484375,0.009765625,0.03125,-0.025390625,-0.00439453125,-0.01873779296875,0.45513916015625,0.89019775390625,-5.382984325202394,-11.741729525283093,21.574889665429314
163,6.560058342000048,bno085,0.46875,-0.015625,9.265625,-0.08984375,0.033203125,-0.037109375,-0.00555419921875,-0.0184326171875,0.4542236328125,0.89068603515625,-5.461724515671607,-11.660096292608046,21.449515784071654
164,6.6000572349985305,bno085,0.4296875,-0.09375,9.265625,-0.013671875,0.009765625,-0.0390625,-0.00555419921875,-0.0184326171875,0.4542236328125,0.89068603515625,-5.461724515671607,-11.660096292608046,21.449515784071654
165,6.640058923998367,bno085,0.46875,-0.1328125,9.34375,-0.009765625,0.0,-0.005859375,-0.00616455078125,-0.01849365234375,0.45330810546875,0.89111328125,-5.504147969990592,-11.643985884503689,21.32772739475746
166,6.680057113999283,bno085,0.46875,-0.1328125,9.34375,-0.009765625,0.0,-0.005859375,-0.00616455078125,-0.01861572265625,0.452880859375,0.891357421875,-5.500477389867535,-11.661111487728371,21.274031200016292
167,6.720058451999648,bno085,0.50390625,-0.09375,9.42578125,-0.021484375,0.015625,-0.01171875,-0.00665283203125,-0.0186767578125,0.45269775390625,0.89141845703125,-5.5486412080707,-11.643729890737703,21.24862710455432
168,6.760057103998406,bno085,0.390625,-0.09375,9.265625,-0.0078125,-0.009765625,-0.005859375,-0.006591796875,-0.01898193359375,0.4527587890625,0.89141845703125,-5.560759028546036,-11.677544196895827,21.2611060424743
169,6.800057385999025,bno085,0.390625,-0.1328125,9.07421875,0.060546875,-0.095703125,0.03515625,-0.006591796875,-0.01898193359375,0.4527587890625,0.89141845703125,-5.560759028546036,-11.677544196895827,21.2611060424743
170,6.840059334999751,bno085,0.46875,0.01953125,9.15234375,0.166015625,-0.14453125,0.115234375,-0.0045166015625,-0.02056884765625,0.45367431640625,0.89093017578125,-5.458473072977341,-11.9369473573373,21.402755931264974
171,6.880058598999312,bno085,0.54296875,0.2109375,9.42578125,0.166015625,-0.14453125,0.115234375,0.0009765625,-0.021728515625,0.4561767578125,0.88958740234375,-5.026508375641097,-12.314942619458487,21.75444502356885
172,6.9200565479986835,bno085,0.66015625,-0.0546875,9.23046875,0.134765625,-0.03125,-0.015625,0.00555419921875,-0.020751953125,0.45635986328125,0.8895263671875,-4.513677376204253,-12.453616696293478,21.779147348989884
173,6.9600595149986475,bno085,0.66015625,0.09765625,9.46484375,-0.068359375,0.015625,0.005859375,0.00445556640625,-0.02130126953125,0.4564208984375,0.88946533203125,-4.656474796875442,-12.451147354666684,21.789726980816987
174,7.000058926998463,bno085,0.62109375,0.13671875,9.38671875,-0.06640625,0.048828125,0.025390625,0.00445556640625,-0.02130126953125,0.4564208984375,0.88946533203125,-4.656474796875442,-12.451147354666684,21.789726980816987
175,7.040057524000076,bno085,0.58203125,0.05859375,9.26953125,0.01953125,0.017578125,0.03515625,0.00238037109375,-0.021484375,0.45697021484375,0.88922119140625,-4.891320472933223,-12.355940782649483,21.860432143493508
176,7.080057898998348,bno085,0.58203125,0.05859375,9.26953125,0.01953125,0.017578125,0.03515625,0.00244140625,-0.0211181640625,0.457763671875,0.88885498046875,-4.885633279904623,-12.314308635140709,21.96210904286284
177,7.120056365998607,bno085,0.46875,0.01953125,9.0390625,0.1484375,-0.001953125,0.07421875,0.00543212890625,-0.0205078125,0.45977783203125,0.88775634765625,-4.6001630653244066,-12.389343007085706,22.22578236770251
178,7.160057703998973,bno085,0.54296875,0.17578125,9.11328125,0.02734375,0.001953125,0.033203125,0.00604248046875,-0.020751953125,0.4605712890625,0.88739013671875,-4.572544559602034,-12.438933734604374,22.335909895308586
179,7.200057763999212,bno085,0.58203125,0.09765625,9.265625,-0.076171875,-0.01171875,0.025390625,0.00604248046875,-0.020751953125,0.4605712890625,0.88739013671875,-4.572544559602034,-12.438933734604374,22.335909895308586
180,7.240059971998562,bno085,0.6953125,0.13671875,9.421875,-0.09375,0.03125,-0.013671875,0.0048828125,-0.02203369140625,0.4608154296875,0.88720703125,-4.766447486361794,-12.50481094936298,22.377848057434537
181,7.280060105998928,bno085,0.66015625,0.01953125,9.4609375,-0.09375,0.03125,-0.013671875,0.00286865234375,-0.022705078125,0.46063232421875,0.88726806640625,-5.002336202529268,-12.46804267274825,22.355599853865574
182,7.320062313998278,bno085,0.6953125,-0.0546875,9.57421875,-0.060546875,0.037109375,-0.015625,0.001220703125,-0.02276611328125,0.460205078125,0.88751220703125,-5.161692838250144,-12.391808924369716,22.296891150698695
183,7.36005696599932,bno085,0.6953125,0.01953125,9.76953125,-0.103515625,0.052734375,0.0078125,-0.0009765625,-0.0225830078125,0.4603271484375,0.887451171875,-5.37706770349456,-12.256048135734908,22.30578232146848
184,7.400057044998903,bno085,0.8515625,-0.24609375,9.61328125,0.06640625,0.06640625,0.04296875,-0.0009765625,-0.0225830078125,0.4603271484375,0.887451171875,-5.37706770349456,-12.256048135734908,22.30578232146848
185,7.440056789999289,bno085,0.66015625,-0.2109375,9.7265625,-0.06640625,0.18359375,0.03515625,-0.000732421875,-0.0203857421875,0.4608154296875,0.88726806640625,-5.243876500866581,-12.041539134178924,22.34735353900742
186,7.480056942998999,bno085,0.46875,-0.171875,9.609375,-0.06640625,0.18359375,0.03515625,-0.00341796875,-0.01788330078125,0.46185302734375,0.88677978515625,-5.4035439662738085,-11.635461205284093,22.4503686192852
187,7.520057835999978,bno085,0.4296875,-0.515625,10.03515625,-0.1640625,0.123046875,-0.00390625,-0.00787353515625,-0.01666259765625,0.46197509765625,0.88671875,-5.789607748108482,-11.275060492141485,22.44081951255133
188,7.560056802998588,bno085,0.46875,-0.70703125,10.0703125,-0.18359375,0.05078125,0.0859375,-0.011962890625,-0.0167236328125,0.46319580078125,0.885986328125,-6.234844697945869,-11.05039327786413,22.587425360543758
189,7.600058066998827,bno085,0.2734375,-0.1328125,10.109375,0.025390625,0.22265625,-0.056640625,-0.011962890625,-0.0167236328125,0.46319580078125,0.885986328125,-6.234844697945869,-11.05039327786413,22.587425360543758
190,7.640058144999784,bno085,0.19921875,-0.515625,9.95703125,-0.087890625,0.251953125,-0.0390625,-0.0142822265625,-0.01300048828125,0.4627685546875,0.88629150390625,-6.254346223228229,-10.556684254808209,22.48574134406962
191,7.680057260999092,bno085,0.08203125,-0.4375,9.84375,-0.087890625,0.251953125,-0.0390625,-0.0179443359375,-0.00836181640625,0.46148681640625,0.886962890625,-6.34076401503682,-9.909080547445797,22.258164224799366
192,7.720057357999394,bno085,0.12109375,-0.62890625,9.6875,-0.060546875,0.2578125,-0.0390625,-0.02191162109375,-0.0035400390625,0.46038818359375,0.887451171875,-6.454570865666393,-9.224621637734154,22.0518805411088
193,7.760058046998893,bno085,0.19921875,-0.515625,9.49609375,-0.0859375,0.146484375,0.125,-0.02520751953125,-0.0006103515625,0.46246337890625,0.88629150390625,-6.672941339833602,-8.729432610978158,22.28052599042209
194,7.800059162998878,bno085,0.2734375,-0.1328125,9.9140625,-0.076171875,0.1796875,0.212890625,-0.02520751953125,-0.0006103515625,0.46246337890625,0.88629150390625,-6.672941339833602,-8.729432610978158,22.28052599042209
195,7.840057277999222,bno085,-0.14453125,-0.40234375,9.2265625,-0.13671875,0.2421875,0.142578125,-0.02789306640625,0.00128173828125,0.46759033203125,0.88348388671875,-6.947336479085185,-8.33218415869749,22.917412445265416
196,7.880056282998339,bno085,-0.453125,-0.171875,9.1484375,-0.13671875,0.2421875,0.142578125,-0.0328369140625,0.00543212890625,0.4705810546875,0.8817138671875,-7.276969748690761,-7.610792641680922,23.24435809685174
197,7.920058768999297,bno085,-0.3359375,-0.5546875,9.34765625,-0.0546875,0.19140625,0.01171875,-0.0357666015625,0.00897216796875,0.47125244140625,0.8812255859375,-7.389709528863393,-7.088024455130646,23.285067941566094
198,7.9600564209995355,bno085,-0.375,-0.66796875,8.92578125,0.05859375,0.123046875,0.033203125,-0.0361328125,0.01220703125,0.47198486328125,0.88079833984375,-7.262833721505534,-6.732866405099843,23.352281066493212
199,8.000057073999415,bno085,-0.3359375,-0.66796875,8.9609375,0.109375,0.029296875,-0.068359375,-0.0361328125,0.01220703125,0.47198486328125,0.88079833984375,-7.262833721505534,-6.732866405099843,23.352281066493212
200,8.040057522999632,bno085,-0.18359375,-0.9765625,8.9609375,0.052734375,-0.013671875,0.03125,-0.03375244140625,0.0145263671875,0.4705810546875,0.881591796875,-6.869944016298669,-6.644839503627837,23.16572702622384
201,8.080056989998411,bno085,-0.109375,-0.5546875,9.4921875,0.052734375,-0.013671875,0.03125,-0.0316162109375,0.0162353515625,0.470703125,0.881591796875,-6.564347840186292,-6.5855483953874225,23.182836097182253
202,8.120057493999411,bno085,-0.109375,-0.74609375,9.11328125,-0.044921875,0.0546875,0.099609375,-0.03369140625,0.01556396484375,0.47259521484375,0.8804931640625,-6.844563142958956,-6.518118836440387,23.420492373137876
203,8.160057257999142,bno085,-0.0703125,-0.40234375,9.73046875,-0.1328125,-0.15625,0.083984375,-0.03466796875,0.01116943359375,0.47442626953125,0.8795166015625,-7.2188920704824,-6.884266837291451,23.686366787580226
204,8.20006289199955,bno085,-0.0703125,-0.40234375,9.765625,0.291015625,-0.0078125,-0.017578125,-0.03466796875,0.01116943359375,0.47442626953125,0.8795166015625,-7.2188920704824,-6.884266837291451,23.686366787580226
205,8.240057858998625,bno085,-0.109375,-0.40234375,9.6875,0.357421875,0.017578125,0.1171875,-0.02783203125,0.01416015625,0.47406005859375,0.87994384765625,-6.362062116343398,-6.95763974876942,23.65763969907357
206,8.280059196998991,bno085,-0.26171875,-0.36328125,9.19140625,0.357421875,0.017578125,0.1171875,-0.02069091796875,0.0177001953125,0.47607421875,0.87896728515625,-5.489953255373317,-6.964534916068636,23.939151147747047
207,8.320056515998658,bno085,-0.3359375,-0.32421875,9.00390625,0.03125,-0.005859375,0.189453125,-0.01873779296875,0.0194091796875,0.4798583984375,0.876953125,-5.272728163368353,-6.857153166186861,24.437134618790573
208,8.360057872998368,bno085,-0.26171875,0.2109375,9.265625,0.197265625,0.11328125,0.185546875,-0.01544189453125,0.023681640625,0.48358154296875,0.8748779296875,-4.776227518873755,-6.5690993172914265,24.922952557896693
209,8.400057024999114,bno085,-0.0703125,-0.74609375,9.109375,0.072265625,0.103515625,0.271484375,-0.01544189453125,0.023681640625,0.48358154296875,0.8748779296875,-4.776227518873755,-6.5690993172914265,24.922952557896693
210,8.440057362999141,bno085,-0.109375,-0.66796875,9.26953125,-0.2890625,0.16796875,0.248046875,-0.014404296875,0.0274658203125,0.4884033203125,0.8720703125,-4.549360073783475,-6.196628958380787,25.54437149691828
211,8.480057552998915,bno085,-0.453125,0.09765625,9.1484375,-0.2890625,0.16796875,0.248046875,-0.02081298828125,0.0269775390625,0.4951171875,0.8681640625,-5.332975699046998,-5.811856216957339,26.387775605587176
212,8.52005588999964,bno085,-0.60546875,0.09765625,9.26953125,-0.056640625,-0.005859375,0.20703125,-0.02337646484375,0.02557373046875,0.49969482421875,0.865478515625,-5.74758743887614,-5.75131903486296,26.981144015614877
213,8.560057283999413,bno085,-0.68359375,0.05859375,9.26953125,0.197265625,-0.015625,0.005859375,-0.01934814453125,0.02703857421875,0.50042724609375,0.8651123046875,-5.279235004224372,-5.826676465508705,27.09905252063042
214,8.600057713998467,bno085,-0.56640625,-0.515625,9.11328125,0.234375,-0.04296875,0.087890625,-0.01934814453125,0.02703857421875,0.50042724609375,0.8651123046875,-5.279235004224372,-5.826676465508705,27.09905252063042
215,8.640057478000017,bno085,-0.56640625,-0.1328125,9.3046875,0.1796875,0.033203125,0.0859375,-0.0137939453125,0.02923583984375,0.50164794921875,0.864501953125,-4.628042973683596,-5.912063540774823,27.29154317214089
216,8.68005831499977,bno085,-0.453125,-0.015625,9.421875,0.1796875,0.033203125,0.0859375,-0.00946044921875,0.0323486328125,0.50360107421875,0.86328125,-4.05628150594618,-5.830722154763753,27.567998599858555
217,8.720056596999711,bno085,-0.4140625,0.17578125,9.5703125,0.12890625,0.013671875,0.1484375,-0.00628662109375,0.03436279296875,0.50640869140625,0.861572265625,-3.677544383350431,-5.785149446515019,27.956743194667943
218,8.760057935000077,bno085,-0.3359375,0.05859375,9.42578125,0.1171875,0.017578125,0.083984375,-0.0037841796875,0.03619384765625,0.50830078125,0.86041259765625,-3.359217926231537,-5.730087645725136,28.22181908431434
219,8.800056643000062,bno085,-0.26171875,0.05859375,9.53125,0.05078125,0.064453125,0.205078125,-0.0037841796875,0.03619384765625,0.50830078125,0.86041259765625,-3.359217926231537,-5.730087645725136,28.22181908431434
220,8.840057221999814,bno085,-0.4140625,0.3671875,9.4609375,0.123046875,0.1171875,0.173828125,-0.00323486328125,0.03759765625,0.51220703125,0.8580322265625,-3.2919114755338232,-5.585149633267583,28.743281480049614
221,8.880057429998487,bno085,-0.375,0.328125,9.4609375,0.123046875,0.1171875,0.173828125,-0.00225830078125,0.0411376953125,0.515625,0.8558349609375,-3.0468670708604946,-5.26056394462067,29.199664608605694
222,8.92005847099972,bno085,-0.64453125,0.55859375,9.1875,0.08203125,0.1484375,0.150390625,-0.00244140625,0.04437255859375,0.51898193359375,0.8536376953125,-2.9292175243611918,-4.899559554134404,29.641919936118665
223,8.960058104999916,bno085,-0.60546875,0.75,9.38671875,-0.0390625,0.08203125,0.126953125,-0.00396728515625,0.04559326171875,0.521484375,0.85198974609375,-3.045366592981673,-4.664918212233755,29.962184198523204
224,9.000058257999626,bno085,-0.68359375,0.75,9.34375,-0.025390625,0.07421875,0.095703125,-0.00396728515625,0.04559326171875,0.521484375,0.85198974609375,-3.045366592981673,-4.664918212233755,29.962184198523204
225,9.040056317999188,bno085,-0.796875,0.51953125,9.265625,0.029296875,0.05078125,0.0625,-0.00506591796875,0.0469970703125,0.52362060546875,0.85064697265625,-3.1029437346415984,-4.440860041517935,30.239534275396753
226,9.080058081999596,bno085,-0.7578125,0.48046875,9.34765625,0.029296875,0.05078125,0.0625,-0.0047607421875,0.04876708984375,0.5247802734375,0.849853515625,-2.9857784478406533,-4.274428717849924,30.396372391709715
227,9.120056104999094,bno085,-0.875,0.3671875,9.2265625,0.013671875,0.041015625,0.056640625,-0.0050048828125,0.04962158203125,0.52587890625,0.84912109375,-2.975350766270126,-4.165386946996941,30.541240680960023
228,9.160057867999058,bno085,-0.8359375,0.2890625,9.26953125,-0.19140625,-0.08984375,0.107421875,-0.007080078125,0.04620361328125,0.52801513671875,0.84796142578125,-3.4163535294935388,-4.352602528923055,30.815859879378017
229,9.200062835998324,bno085,-0.64453125,0.3671875,9.65234375,-0.17578125,-0.078125,0.068359375,-0.007080078125,0.04620361328125,0.52801513671875,0.84796142578125,-3.4163535294935388,-4.352602528923055,30.815859879378017
230,9.240058320998287,bno085,-0.52734375,0.25,9.80859375,-0.00390625,-0.029296875,0.01953125,-0.00970458984375,0.04193115234375,0.52984619140625,0.84698486328125,-3.95830779603006,-4.59085641952771,31.04942408568237
231,9.280059769998843,bno085,-0.64453125,0.3671875,9.6875,-0.00390625,-0.029296875,0.01953125,-0.0093994140625,0.04083251953125,0.53009033203125,0.846923828125,-4.00015781570915,-4.713513139548507,31.088813840304475
232,9.32005707099961,bno085,-0.68359375,0.25,9.6875,-0.02734375,-0.001953125,-0.00390625,-0.00946044921875,0.04058837890625,0.52996826171875,0.84698486328125,-4.018624530034005,-4.734926100552638,31.071813472162045
233,9.360059482998622,bno085,-0.8359375,0.2109375,9.5703125,0.03125,0.001953125,-0.009765625,-0.0091552734375,0.04058837890625,0.5296630859375,0.84716796875,-3.984056412055856,-4.756759738241935,31.032821346387177
234,9.400056690999918,bno085,-0.875,0.2890625,9.42578125,-0.07421875,-0.015625,-0.037109375,-0.0091552734375,0.04058837890625,0.5296630859375,0.84716796875,-3.984056412055856,-4.756759738241935,31.032821346387177
235,9.440056768999057,bno085,-0.68359375,0.2109375,9.61328125,0.052734375,-0.017578125,-0.033203125,-0.01007080078125,0.03973388671875,0.529052734375,0.84759521484375,-4.1144185881506035,-4.791682824395412,30.945806781742508
236,9.48005888499938,bno085,-0.68359375,0.2890625,9.42578125,0.052734375,-0.017578125,-0.033203125,-0.009033203125,0.03973388671875,0.5283203125,0.84808349609375,-4.002369465599779,-4.8624550091824785,30.85598338917736
237,9.520056351999301,bno085,-0.60546875,0.2109375,9.4921875,0.068359375,-0.041015625,-0.052734375,-0.0072021484375,0.0394287109375,0.52752685546875,0.84857177734375,-3.83050064555996,-5.011038940354537,30.763689100377817
238,9.560057078999307,bno085,-0.4921875,0.25,9.61328125,-0.0390625,-0.07421875,0.017578125,-0.00634765625,0.03790283203125,0.52777099609375,0.8485107421875,-3.8449156797380026,-5.208437837234975,30.808463036788307
239,9.60005606499908,bno085,-0.453125,0.05859375,9.53515625,0.00390625,-0.01953125,0.02734375,-0.00634765625,0.03790283203125,0.52777099609375,0.8485107421875,-3.8449156797380026,-5.208437837234975,30.808463036788307
240,9.640057013999467,bno085,-0.52734375,0.13671875,9.3046875,-0.078125,0.0390625,-0.04296875,-0.005859375,0.03765869140625,0.52801513671875,0.848388671875,-3.8169518005721126,-5.258925020905262,30.84648421383843
241,9.680057388999558,bno085,-0.4140625,0.17578125,9.34375,-0.078125,0.0390625,-0.04296875,-0.00787353515625,0.037353515625,0.52734375,0.8487548828125,-4.017944498890547,-5.174968567825357,30.73952095341207
242,9.720057522999923,bno085,-0.52734375,-0.0546875,9.4921875,-0.126953125,0.041015625,-0.060546875,-0.01104736328125,0.03643798828125,0.526123046875,0.84954833984375,-4.359680071912207,-5.0877976891850665,30.55358633138884
243,9.760057359999337,bno085,-0.52734375,-0.24609375,9.65234375,-0.1171875,-0.009765625,-0.017578125,-0.01324462890625,0.03485107421875,0.525634765625,0.84991455078125,-4.660232381690142,-5.116810070549014,30.47703549115199
244,9.800057568998454,bno085,-0.64453125,0.05859375,9.65234375,-0.021484375,-0.013671875,0.029296875,-0.01324462890625,0.03485107421875,0.525634765625,0.84991455078125,-4.660232381690142,-5.116810070549014,30.47703549115199
245,9.840057276998778,bno085,-0.68359375,0.09765625,9.53125,0.0078125,-0.0390625,0.017578125,-0.01361083984375,0.033935546875,0.52618408203125,0.849609375,-4.7604545405186585,-5.177615641279223,30.551915343708867
246,9.880058076998466,bno085,-0.64453125,0.2109375,9.5703125,0.0078125,-0.0390625,0.017578125,-0.01348876953125,0.03253173828125,0.526611328125,0.849365234375,-4.840706203009172,-5.316530229773299,30.615485096240505
247,9.92005717399843,bno085,-0.56640625,0.17578125,9.57421875,-0.0390625,-0.04296875,-0.005859375,-0.0137939453125,0.03070068359375,0.52667236328125,0.84942626953125,-4.982819152139002,-5.4759855373114865,30.630639333484407
248,9.960057307998795,bno085,-0.4921875,0.09765625,9.6484375,0.046875,-0.025390625,-0.009765625,-0.01300048828125,0.030029296875,0.52655029296875,0.84954833984375,-4.944924563831521,-5.5904894677957016,30.623827583808204
