sample,time_s,sensor,message_type,yaw_deg,pitch_deg,roll_deg,mag_x_gauss,mag_y_gauss,mag_z_gauss,accel_x_mps2,accel_y_mps2,accel_z_mps2,gyro_x_radps,gyro_y_radps,gyro_z_radps,gps_time_s,gps_week,ins_status,latitude_deg,longitude_deg,altitude_m,vel_n_mps,vel_e_mps,vel_d_mps,raw_message
0,0.0002094430001307046,vn200,VNYMR,-83.459,6.618,0.083,0.0253,0.0538,0.2636,1.095,-0.018,-9.523,9.2e-05,-0.000571,-0.000501,,,,,,,,,,"$VNYMR,-083.459,+006.618,+000.083,+00.0253,+00.0538,+00.2636,+01.095,-00.018,-09.523,+00.000092,-00.000571,-00.000501*67"
1,0.04005941900140897,vn200,VNYMR,-83.457,6.617,0.084,0.026,0.0553,0.2638,1.118,-0.007,-9.532,-0.000143,0.000679,0.00083,,,,,,,,,,"$VNYMR,-083.457,+006.617,+000.084,+00.0260,+00.0553,+00.2638,+01.118,-00.007,-09.532,-00.000143,+00.000679,+00.000830*67"
2,0.0800566540001455,vn200,VNYMR,-83.457,6.617,0.083,0.0253,0.056,0.2633,1.103,-0.021,-9.559,-0.00044,-0.000772,0.000504,,,,,,,,,,"$VNYMR,-083.457,+006.617,+000.083,+00.0253,+00.0560,+00.2633,+01.103,-00.021,-09.559,-00.000440,-00.000772,+00.000504*68"
3,0.12005787000089185,vn200,VNYMR,-83.458,6.616,0.084,0.0267,0.0536,0.2626,1.099,-0.002,-9.526,0.000691,0.000543,0.0004,,,,,,,,,,"$VNYMR,-083.458,+006.616,+000.084,+00.0267,+00.0536,+00.2626,+01.099,-00.002,-09.526,+00.000691,+00.000543,+00.000400*61"
4,0.16005682700051693,vn200,VNYMR,-83.458,6.615,0.084,0.0267,0.0548,0.2662,1.096,-0.016,-9.546,-0.000955,0.000761,-0.000675,,,,,,,,,,"$VNYMR,-083.458,+006.615,+000.084,+00.0267,+00.0548,+00.2662,+01.096,-00.016,-09.546,-00.000955,+00.000761,-00.000675*62"
5,0.20005854300143255,vn200,VNYMR,-83.458,6.615,0.084,0.0257,0.0533,0.2658,1.093,-0.025,-9.539,-2.4e-05,0.000343,0.001071,,,,,,,,,,"$VNYMR,-083.458,+006.615,+000.084,+00.0257,+00.0533,+00.2658,+01.093,-00.025,-09.539,-00.000024,+00.000343,+00.001071*67"
6,0.2400569630008249,vn200,VNYMR,-83.459,6.615,0.084,0.026,0.0531,0.2626,1.1,0.008,-9.547,0.000344,-0.000715,-0.000478,,,,,,,,,,"$VNYMR,-083.459,+006.615,+000.084,+00.0260,+00.0531,+00.2626,+01.100,+00.008,-09.547,+00.000344,-00.000715,-00.000478*6A"
7,0.28005597600167675,vn200,VNYMR,-83.458,6.614,0.083,0.0262,0.0536,0.2636,1.086,-0.008,-9.547,0.000661,-0.000425,-0.000815,,,,,,,,,,"$VNYMR,-083.458,+006.614,+000.083,+00.0262,+00.0536,+00.2636,+01.086,-00.008,-09.547,+00.000661,-00.000425,-00.000815*65"
8,0.3200561920002656,vn200,VNYMR,-83.456,6.614,0.084,0.0262,0.0524,0.2638,1.109,-0.022,-9.532,-7.6e-05,0.000417,0.00131,,,,,,,,,,"$VNYMR,-083.456,+006.614,+000.084,+00.0262,+00.0524,+00.2638,+01.109,-00.022,-09.532,-00.000076,+00.000417,+00.001310*65"
9,0.3600557600002503,vn200,VNYMR,-83.456,6.614,0.084,0.0255,0.0548,0.2636,1.097,-0.009,-9.569,0.000172,-0.000334,-0.001172,,,,,,,,,,"$VNYMR,-083.456,+006.614,+000.084,+00.0255,+00.0548,+00.2636,+01.097,-00.009,-09.569,+00.000172,-00.000334,-00.001172*67"
10,0.4000554580015887,vn200,VNYMR,-83.457,6.614,0.084,0.025,0.0541,0.2643,1.1,-0.036,-9.539,0.000176,5.2e-05,-0.000165,,,,,,,,,,"$VNYMR,-083.457,+006.614,+000.084,+00.0250,+00.0541,+00.2643,+01.100,-00.036,-09.539,+00.000176,+00.000052,-00.000165*68"
11,0.44005556299998716,vn200,VNYMR,-83.457,6.613,0.085,0.0255,0.0526,0.2624,1.125,-0.024,-9.54,0.000876,0.00037,-0.000399,,,,,,,,,,"$VNYMR,-083.457,+006.613,+000.085,+00.0255,+00.0526,+00.2624,+01.125,-00.024,-09.540,+00.000876,+00.000370,-00.000399*6A"
12,0.4800563720000355,vn200,VNYMR,-83.459,6.611,0.084,0.026,0.0533,0.2638,1.088,-0.018,-9.523,-2.9e-05,-0.000413,-0.000625,,,,,,,,,,"$VNYMR,-083.459,+006.611,+000.084,+00.0260,+00.0533,+00.2638,+01.088,-00.018,-09.523,-00.000029,-00.000413,-00.000625*66"
13,0.5200568850013951,vn200,VNYMR,-83.46,6.61,0.085,0.0253,0.0538,0.2657,1.116,-0.01,-9.571,0.000492,-0.000282,-0.000483,,,,,,,,,,"$VNYMR,-083.460,+006.610,+000.085,+00.0253,+00.0538,+00.2657,+01.116,-00.010,-09.571,+00.000492,-00.000282,-00.000483*65"
14,0.5600546380010201,vn200,VNYMR,-83.46,6.612,0.086,0.0262,0.0538,0.2646,1.096,-0.042,-9.56,-0.000168,0.000594,0.000796,,,,,,,,,,"$VNYMR,-083.460,+006.612,+000.086,+00.0262,+00.0538,+00.2646,+01.096,-00.042,-09.560,-00.000168,+00.000594,+00.000796*69"
15,0.6000555390000955,vn200,VNYMR,-83.459,6.614,0.084,0.026,0.0538,0.266,1.095,-0.038,-9.537,-0.000355,-0.000415,0.001431,,,,,,,,,,"$VNYMR,-083.459,+006.614,+000.084,+00.0260,+00.0538,+00.2660,+01.095,-00.038,-09.537,-00.000355,-00.000415,+00.001431*60"
16,0.6400557740016666,vn200,VNYMR,-83.458,6.615,0.085,0.0253,0.0543,0.2634,1.106,0.003,-9.536,0.000106,0.000398,-6.5e-05,,,,,,,,,,"$VNYMR,-083.458,+006.615,+000.085,+00.0253,+00.0543,+00.2634,+01.106,+00.003,-09.536,+00.000106,+00.000398,-00.000065*6C"
17,0.6800593980005942,vn200,VNYMR,-83.457,6.614,0.084,0.025,0.0543,0.2643,1.114,-0.014,-9.547,0.000475,0.00037,-0.000105,,,,,,,,,,"$VNYMR,-083.457,+006.614,+000.084,+00.0250,+00.0543,+00.2643,+01.114,-00.014,-09.547,+00.000475,+00.000370,-00.000105*65"
18,0.720057299000473,vn200,VNYMR,-83.458,6.614,0.085,0.0269,0.0548,0.2626,1.094,-0.043,-9.537,0.000365,-2e-06,0.000395,,,,,,,,,,"$VNYMR,-083.458,+006.614,+000.085,+00.0269,+00.0548,+00.2626,+01.094,-00.043,-09.537,+00.000365,-00.000002,+00.000395*6E"
19,0.7600607010008389,vn200,VNYMR,-83.457,6.614,0.085,0.0251,0.0548,0.2631,1.104,-0.021,-9.53,0.000421,0.000519,-0.001333,,,,,,,,,,"$VNYMR,-083.457,+006.614,+000.085,+00.0251,+00.0548,+00.2631,+01.104,-00.021,-09.530,+00.000421,+00.000519,-00.001333*62"
20,0.8000558430012461,vn200,VNYMR,-83.458,6.612,0.084,0.0265,0.0543,0.2641,1.099,-0.017,-9.529,-0.000818,-0.000532,0.000327,,,,,,,,,,"$VNYMR,-083.458,+006.612,+000.084,+00.0265,+00.0543,+00.2641,+01.099,-00.017,-09.529,-00.000818,-00.000532,+00.000327*64"
21,0.840056615001231,vn200,VNYMR,-83.458,6.613,0.084,0.0255,0.0538,0.2634,1.107,-0.012,-9.527,0.000275,0.000451,0.000134,,,,,,,,,,"$VNYMR,-083.458,+006.613,+000.084,+00.0255,+00.0538,+00.2634,+01.107,-00.012,-09.527,+00.000275,+00.000451,+00.000134*60"
22,0.8800561269999889,vn200,VNYMR,-83.459,6.613,0.084,0.0255,0.0536,0.2631,1.119,-0.008,-9.506,-0.000128,-0.000347,-0.000585,,,,,,,,,,"$VNYMR,-083.459,+006.613,+000.084,+00.0255,+00.0536,+00.2631,+01.119,-00.008,-09.506,-00.000128,-00.000347,-00.000585*6E"
23,0.9200565099999949,vn200,VNYMR,-83.458,6.614,0.086,0.0262,0.0541,0.2646,1.065,-0.01,-9.546,0.000245,0.000172,-0.000887,,,,,,,,,,"$VNYMR,-083.458,+006.614,+000.086,+00.0262,+00.0541,+00.2646,+01.065,-00.010,-09.546,+00.000245,+00.000172,-00.000887*6A"
24,0.9600545040011639,vn200,VNYMR,-83.458,6.612,0.086,0.0257,0.0546,0.2653,1.127,-0.031,-9.543,-0.000305,-0.000147,-0.000669,,,,,,,,,,"$VNYMR,-083.458,+006.612,+000.086,+00.0257,+00.0546,+00.2653,+01.127,-00.031,-09.543,-00.000305,-00.000147,-00.000669*65"
25,1.0000557210005354,vn200,VNYMR,-83.459,6.613,0.086,0.0253,0.0536,0.2638,1.087,-0.006,-9.569,-1.9e-05,0.000225,-0.001079,,,,,,,,,,"$VNYMR,-083.459,+006.613,+000.086,+00.0253,+00.0536,+00.2638,+01.087,-00.006,-09.569,-00.000019,+00.000225,-00.001079*65"
26,1.0400568260010914,vn200,VNYMR,-83.457,6.612,0.085,0.026,0.0543,0.2641,1.117,-0.025,-9.51,-2.1e-05,-0.000361,0.000604,,,,,,,,,,"$VNYMR,-083.457,+006.612,+000.085,+00.0260,+00.0543,+00.2641,+01.117,-00.025,-09.510,-00.000021,-00.000361,+00.000604*65"
27,1.0800565240006108,vn200,VNYMR,-83.458,6.613,0.086,0.0262,0.0548,0.2641,1.106,-0.004,-9.538,-0.001069,5.4e-05,-9.2e-05,,,,,,,,,,"$VNYMR,-083.458,+006.613,+000.086,+00.0262,+00.0548,+00.2641,+01.106,-00.004,-09.538,-00.001069,+00.000054,-00.000092*69"
28,1.120056129000659,vn200,VNYMR,-83.458,6.611,0.084,0.0251,0.0553,0.2634,1.089,-0.007,-9.548,-0.00073,-0.000159,-9e-05,,,,,,,,,,"$VNYMR,-083.458,+006.611,+000.084,+00.0251,+00.0553,+00.2634,+01.089,-00.007,-09.548,-00.000730,-00.000159,-00.000090*61"
29,1.1600564750006015,vn200,VNYMR,-83.458,6.61,0.082,0.026,0.0538,0.2648,1.114,-0.012,-9.549,-0.000913,-0.001317,0.000181,,,,,,,,,,"$VNYMR,-083.458,+006.610,+000.082,+00.0260,+00.0538,+00.2648,+01.114,-00.012,-09.549,-00.000913,-00.001317,+00.000181*63"
30,1.200056821000544,vn200,VNYMR,-83.457,6.609,0.08,0.0269,0.0534,0.2634,1.105,-0.008,-9.527,9.5e-05,-0.000136,0.000521,,,,,,,,,,"$VNYMR,-083.457,+006.609,+000.080,+00.0269,+00.0534,+00.2634,+01.105,-00.008,-09.527,+00.000095,-00.000136,+00.000521*64"
31,1.240058241000952,vn200,VNYMR,-83.456,6.609,0.081,0.0255,0.0541,0.2643,1.1,0.016,-9.526,-0.000216,-0.000414,-7e-06,,,,,,,,,,"$VNYMR,-083.456,+006.609,+000.081,+00.0255,+00.0541,+00.2643,+01.100,+00.016,-09.526,-00.000216,-00.000414,-00.000007*69"
32,1.280057031000979,vn200,VNYMR,-83.456,6.606,0.08,0.0262,0.0533,0.2638,1.108,-0.028,-9.555,-0.000499,0.000936,-0.000569,,,,,,,,,,"$VNYMR,-083.456,+006.606,+000.080,+00.0262,+00.0533,+00.2638,+01.108,-00.028,-09.555,-00.000499,+00.000936,-00.000569*6A"
33,1.3200588950003294,vn200,VNYMR,-83.456,6.606,0.08,0.0255,0.0553,0.2631,1.093,-0.004,-9.524,0.000471,1.1e-05,-0.000522,,,,,,,,,,"$VNYMR,-083.456,+006.606,+000.080,+00.0255,+00.0553,+00.2631,+01.093,-00.004,-09.524,+00.000471,+00.000011,-00.000522*69"
34,1.3600587230012025,vn200,VNYMR,-83.455,6.607,0.079,0.0262,0.0555,0.2634,1.109,0.009,-9.543,0.000109,-0.000311,0.001498,,,,,,,,,,"$VNYMR,-083.455,+006.607,+000.079,+00.0262,+00.0555,+00.2634,+01.109,+00.009,-09.543,+00.000109,-00.000311,+00.001498*6A"
35,1.4000577730002988,vn200,VNYMR,-83.457,6.607,0.079,0.0265,0.0536,0.2626,1.114,-0.036,-9.485,0.000215,-0.001014,-0.001187,,,,,,,,,,"$VNYMR,-083.457,+006.607,+000.079,+00.0265,+00.0536,+00.2626,+01.114,-00.036,-09.485,+00.000215,-00.001014,-00.001187*60"
36,1.4400572480008123,vn200,VNYMR,-83.457,6.607,0.079,0.0262,0.0541,0.2653,1.128,-0.011,-9.551,-0.000326,0.000957,0.0002,,,,,,,,,,"$VNYMR,-083.457,+006.607,+000.079,+00.0262,+00.0541,+00.2653,+01.128,-00.011,-09.551,-00.000326,+00.000957,+00.000200*62"
37,1.4800579270013259,vn200,VNYMR,-83.457,6.607,0.079,0.0248,0.0541,0.2646,1.092,-0.002,-9.535,0.000375,-6.8e-05,-0.000227,,,,,,,,,,"$VNYMR,-083.457,+006.607,+000.079,+00.0248,+00.0541,+00.2646,+01.092,-00.002,-09.535,+00.000375,-00.000068,-00.000227*6E"
38,1.5200572180001473,vn200,VNYMR,-83.457,6.608,0.078,0.0257,0.0529,0.2631,1.104,-0.02,-9.53,-0.000218,-0.001253,-2.3e-05,,,,,,,,,,"$VNYMR,-083.457,+006.608,+000.078,+00.0257,+00.0529,+00.2631,+01.104,-00.020,-09.530,-00.000218,-00.001253,-00.000023*6A"
39,1.560055823001676,vn200,VNYMR,-83.457,6.609,0.078,0.0271,0.0519,0.2643,1.094,0.019,-9.548,0.001802,0.000687,0.000411,,,,,,,,,,"$VNYMR,-083.457,+006.609,+000.078,+00.0271,+00.0519,+00.2643,+01.094,+00.019,-09.548,+00.001802,+00.000687,+00.000411*6D"
40,1.6000576140013436,vn200,VNYMR,-83.458,6.609,0.079,0.0248,0.0528,0.2636,1.097,-0.017,-9.539,0.000125,-9.5e-05,-0.000186,,,,,,,,,,"$VNYMR,-083.458,+006.609,+000.079,+00.0248,+00.0528,+00.2636,+01.097,-00.017,-09.539,+00.000125,-00.000095,-00.000186*67"
41,1.6400597740012017,vn200,VNYMR,-83.458,6.608,0.08,0.026,0.0538,0.2643,1.122,-0.01,-9.54,-0.000392,0.000623,0.000287,,,,,,,,,,"$VNYMR,-083.458,+006.608,+000.080,+00.0260,+00.0538,+00.2643,+01.122,-00.010,-09.540,-00.000392,+00.000623,+00.000287*6E"
42,1.680058417001419,vn200,VNYMR,-83.459,6.608,0.079,0.026,0.0563,0.2629,1.102,-0.01,-9.54,-0.000417,-0.000293,-0.000405,,,,,,,,,,"$VNYMR,-083.459,+006.608,+000.079,+00.0260,+00.0563,+00.2629,+01.102,-00.010,-09.540,-00.000417,-00.000293,-00.000405*60"
43,1.7200572630008537,vn200,VNYMR,-83.459,6.611,0.079,0.025,0.0538,0.2648,1.113,-0.004,-9.538,0.000194,0.001372,-0.000564,,,,,,,,,,"$VNYMR,-083.459,+006.611,+000.079,+00.0250,+00.0538,+00.2648,+01.113,-00.004,-09.538,+00.000194,+00.001372,-00.000564*6F"
44,1.7600582009999926,vn200,VNYMR,-83.46,6.611,0.077,0.0257,0.0533,0.2641,1.1,0.004,-9.561,0.000518,0.000577,-0.001492,,,,,,,,,,"$VNYMR,-083.460,+006.611,+000.077,+00.0257,+00.0533,+00.2641,+01.100,+00.004,-09.561,+00.000518,+00.000577,-00.001492*6D"
45,1.800056862000929,vn200,VNYMR,-83.461,6.612,0.077,0.0269,0.0543,0.2622,1.095,-0.019,-9.526,0.00118,0.000462,0.001001,,,,,,,,,,"$VNYMR,-083.461,+006.612,+000.077,+00.0269,+00.0543,+00.2622,+01.095,-00.019,-09.526,+00.001180,+00.000462,+00.001001*6D"
46,1.8400568000015483,vn200,VNYMR,-83.461,6.612,0.077,0.0255,0.0541,0.2648,1.102,-0.005,-9.54,0.001042,0.000384,-0.000825,,,,,,,,,,"$VNYMR,-083.461,+006.612,+000.077,+00.0255,+00.0541,+00.2648,+01.102,-00.005,-09.540,+00.001042,+00.000384,-00.000825*67"
47,1.8800572760010255,vn200,VNYMR,-83.461,6.613,0.076,0.0253,0.0533,0.2641,1.106,-0.006,-9.538,-0.000409,0.000374,-0.000631,,,,,,,,,,"$VNYMR,-083.461,+006.613,+000.076,+00.0253,+00.0533,+00.2641,+01.106,-00.006,-09.538,-00.000409,+00.000374,-00.000631*6D"
48,1.9200564000002487,vn200,VNYMR,-83.462,6.614,0.078,0.026,0.0541,0.2641,1.117,-0.017,-9.575,-0.000606,0.000587,-0.000821,,,,,,,,,,"$VNYMR,-083.462,+006.614,+000.078,+00.0260,+00.0541,+00.2641,+01.117,-00.017,-09.575,-00.000606,+00.000587,-00.000821*63"
49,1.9600569869999163,vn200,VNYMR,-83.462,6.615,0.078,0.0258,0.0546,0.2626,1.13,-0.008,-9.523,0.000489,-0.000273,0.000145,,,,,,,,,,"$VNYMR,-083.462,+006.615,+000.078,+00.0258,+00.0546,+00.2626,+01.130,-00.008,-09.523,+00.000489,-00.000273,+00.000145*63"
50,2.000056499000493,vn200,VNYMR,-83.462,6.616,0.076,0.026,0.0546,0.2634,1.136,-0.01,-9.513,-0.000944,-0.000204,-0.000154,,,,,,,,,,"$VNYMR,-083.462,+006.616,+000.076,+00.0260,+00.0546,+00.2634,+01.136,-00.010,-09.513,-00.000944,-00.000204,-00.000154*66"
51,2.040058475000478,vn200,VNYMR,-83.461,6.615,0.076,0.026,0.055,0.261,1.129,-0.028,-9.541,-0.000394,0.0004,-8e-06,,,,,,,,,,"$VNYMR,-083.461,+006.615,+000.076,+00.0260,+00.0550,+00.2610,+01.129,-00.028,-09.541,-00.000394,+00.000400,-00.000008*6E"
52,2.080056358001457,vn200,VNYMR,-83.461,6.615,0.077,0.026,0.0529,0.2636,1.102,-0.027,-9.558,-0.000933,0.000333,0.00068,,,,,,,,,,"$VNYMR,-083.461,+006.615,+000.077,+00.0260,+00.0529,+00.2636,+01.102,-00.027,-09.558,-00.000933,+00.000333,+00.000680*6B"
53,2.1200587780003843,vn200,VNYMR,-83.459,6.612,0.078,0.026,0.0548,0.2655,1.107,-0.019,-9.538,0.000469,6.8e-05,-0.000197,,,,,,,,,,"$VNYMR,-083.459,+006.612,+000.078,+00.0260,+00.0548,+00.2655,+01.107,-00.019,-09.538,+00.000469,+00.000068,-00.000197*6A"
54,2.1600580680005805,vn200,VNYMR,-83.459,6.612,0.077,0.0267,0.0534,0.2643,1.104,0.013,-9.549,-0.000893,-0.001564,0.001549,,,,,,,,,,"$VNYMR,-083.459,+006.612,+000.077,+00.0267,+00.0534,+00.2643,+01.104,+00.013,-09.549,-00.000893,-00.001564,+00.001549*66"
55,2.2000633770003333,vn200,VNYMR,-83.46,6.612,0.077,0.025,0.0536,0.2648,1.091,-0.006,-9.543,0.000235,0.001017,0.000355,,,,,,,,,,"$VNYMR,-083.460,+006.612,+000.077,+00.0250,+00.0536,+00.2648,+01.091,-00.006,-09.543,+00.000235,+00.001017,+00.000355*69"
56,2.240058631001375,vn200,VNYMR,-83.461,6.611,0.077,0.0258,0.055,0.2648,1.092,-0.002,-9.542,0.000349,-6.3e-05,1.5e-05,,,,,,,,,,"$VNYMR,-083.461,+006.611,+000.077,+00.0258,+00.0550,+00.2648,+01.092,-00.002,-09.542,+00.000349,-00.000063,+00.000015*6C"
57,2.280068291000134,vn200,VNYMR,-83.46,6.61,0.077,0.0265,0.0558,0.2631,1.096,-0.004,-9.535,0.000385,-0.000168,-0.001332,,,,,,,,,,"$VNYMR,-083.460,+006.610,+000.077,+00.0265,+00.0558,+00.2631,+01.096,-00.004,-09.535,+00.000385,-00.000168,-00.001332*6D"
58,2.3200577850002446,vn200,VNYMR,-83.461,6.611,0.076,0.0255,0.0541,0.265,1.082,-0.019,-9.547,0.000517,-0.000713,-0.000726,,,,,,,,,,"$VNYMR,-083.461,+006.611,+000.076,+00.0255,+00.0541,+00.2650,+01.082,-00.019,-09.547,+00.000517,-00.000713,-00.000726*6B"
59,2.3600582430008217,vn200,VNYMR,-83.46,6.611,0.076,0.0253,0.0536,0.2641,1.117,-0.029,-9.538,-0.000149,5.3e-05,-7.9e-05,,,,,,,,,,"$VNYMR,-083.460,+006.611,+000.076,+00.0253,+00.0536,+00.2641,+01.117,-00.029,-09.538,-00.000149,+00.000053,-00.000079*6B"
60,2.4000578110008064,vn200,VNYMR,-83.46,6.614,0.076,0.0265,0.0546,0.2626,1.11,-0.02,-9.552,0.0004,0.000719,0.000259,,,,,,,,,,"$VNYMR,-083.460,+006.614,+000.076,+00.0265,+00.0546,+00.2626,+01.110,-00.020,-09.552,+00.000400,+00.000719,+00.000259*6E"
61,2.440058657000918,vn200,VNYMR,-83.46,6.614,0.076,0.026,0.0546,0.2629,1.121,-0.01,-9.57,-0.000672,0.000585,0.0012,,,,,,,,,,"$VNYMR,-083.460,+006.614,+000.076,+00.0260,+00.0546,+00.2629,+01.121,-00.010,-09.570,-00.000672,+00.000585,+00.001200*6E"
62,2.4800573360007547,vn200,VNYMR,-83.46,6.613,0.077,0.0248,0.0548,0.2619,1.102,-0.019,-9.547,0.000383,-5.2e-05,0.001086,,,,,,,,,,"$VNYMR,-083.460,+006.613,+000.077,+00.0248,+00.0548,+00.2619,+01.102,-00.019,-09.547,+00.000383,-00.000052,+00.001086*6B"
63,2.5200587380004436,vn200,VNYMR,-83.461,6.613,0.076,0.0255,0.0541,0.2655,1.091,0.0,-9.526,-0.000228,-2.7e-05,0.000133,,,,,,,,,,"$VNYMR,-083.461,+006.613,+000.076,+00.0255,+00.0541,+00.2655,+01.091,+00.000,-09.526,-00.000228,-00.000027,+00.000133*6E"
64,2.5600572880011896,vn200,VNYMR,-83.461,6.613,0.075,0.0253,0.0545,0.2622,1.119,0.023,-9.53,-0.000517,-0.000398,-0.001156,,,,,,,,,,"$VNYMR,-083.461,+006.613,+000.075,+00.0253,+00.0545,+00.2622,+01.119,+00.023,-09.530,-00.000517,-00.000398,-00.001156*60"
65,2.6000581520002015,vn200,VNYMR,-83.462,6.612,0.075,0.0253,0.0536,0.2641,1.108,-0.027,-9.534,0.000814,-0.002158,-0.000121,,,,,,,,,,"$VNYMR,-083.462,+006.612,+000.075,+00.0253,+00.0536,+00.2641,+01.108,-00.027,-09.534,+00.000814,-00.002158,-00.000121*60"
66,2.640057220000017,vn200,VNYMR,-83.462,6.612,0.075,0.026,0.0553,0.2636,1.101,-0.016,-9.541,-0.000612,-0.001104,0.000562,,,,,,,,,,"$VNYMR,-083.462,+006.612,+000.075,+00.0260,+00.0553,+00.2636,+01.101,-00.016,-09.541,-00.000612,-00.001104,+00.000562*6B"
67,2.6800585110013344,vn200,VNYMR,-83.462,6.611,0.074,0.0262,0.0529,0.2641,1.1,-0.011,-9.583,-0.000412,-0.000834,-0.00073,,,,,,,,,,"$VNYMR,-083.462,+006.611,+000.074,+00.0262,+00.0529,+00.2641,+01.100,-00.011,-09.583,-00.000412,-00.000834,-00.000730*64"
68,2.7200597270002618,vn200,VNYMR,-83.463,6.611,0.073,0.026,0.055,0.2645,1.097,-0.002,-9.555,-0.001169,0.000483,-0.000326,,,,,,,,,,"$VNYMR,-083.463,+006.611,+000.073,+00.0260,+00.0550,+00.2645,+01.097,-00.002,-09.555,-00.001169,+00.000483,-00.000326*61"
69,2.7600574620009866,vn200,VNYMR,-83.463,6.612,0.073,0.026,0.0536,0.2643,1.122,-0.047,-9.561,-0.000177,-0.000201,0.00028,,,,,,,,,,"$VNYMR,-083.463,+006.612,+000.073,+00.0260,+00.0536,+00.2643,+01.122,-00.047,-09.561,-00.000177,-00.000201,+00.000280*62"
70,2.800057104001098,vn200,VNYMR,-83.461,6.614,0.073,0.0271,0.0536,0.2646,1.136,-0.009,-9.556,-0.00025,0.001346,-0.000301,,,,,,,,,,"$VNYMR,-083.461,+006.614,+000.073,+00.0271,+00.0536,+00.2646,+01.136,-00.009,-09.556,-00.000250,+00.001346,-00.000301*65"
71,2.8400590430010197,vn200,VNYMR,-83.461,6.614,0.075,0.0248,0.0543,0.2629,1.101,-0.019,-9.552,0.000823,-0.000201,0.000224,,,,,,,,,,"$VNYMR,-083.461,+006.614,+000.075,+00.0248,+00.0543,+00.2629,+01.101,-00.019,-09.552,+00.000823,-00.000201,+00.000224*6E"
72,2.880057519001639,vn200,VNYMR,-83.462,6.615,0.076,0.026,0.0526,0.2631,1.105,-0.033,-9.535,0.00081,0.001103,4.5e-05,,,,,,,,,,"$VNYMR,-083.462,+006.615,+000.076,+00.0260,+00.0526,+00.2631,+01.105,-00.033,-09.535,+00.000810,+00.001103,+00.000045*61"
73,2.9200574200003757,vn200,VNYMR,-83.461,6.615,0.078,0.026,0.0538,0.2646,1.124,-0.028,-9.529,0.000155,-0.000905,0.001116,,,,,,,,,,"$VNYMR,-083.461,+006.615,+000.078,+00.0260,+00.0538,+00.2646,+01.124,-00.028,-09.529,+00.000155,-00.000905,+00.001116*60"
74,2.9600563399999373,vn200,VNYMR,-83.46,6.615,0.078,0.0253,0.0543,0.2629,1.095,-0.032,-9.555,-0.000568,0.000561,-0.000275,,,,,,,,,,"$VNYMR,-083.460,+006.615,+000.078,+00.0253,+00.0543,+00.2629,+01.095,-00.032,-09.555,-00.000568,+00.000561,-00.000275*6A"
75,3.000056298000345,vn200,VNYMR,-83.461,6.616,0.077,0.0246,0.0548,0.2629,1.128,-0.024,-9.524,0.000244,0.000572,0.000308,,,,,,,,,,"$VNYMR,-083.461,+006.616,+000.077,+00.0246,+00.0548,+00.2629,+01.128,-00.024,-09.524,+00.000244,+00.000572,+00.000308*6E"
76,3.040058661999865,vn200,VNYMR,-83.461,6.616,0.077,0.025,0.0538,0.2643,1.112,0.002,-9.469,9.4e-05,-0.001024,-3.9e-05,,,,,,,,,,"$VNYMR,-083.461,+006.616,+000.077,+00.0250,+00.0538,+00.2643,+01.112,+00.002,-09.469,+00.000094,-00.001024,-00.000039*68"
77,3.080058730000019,vn200,VNYMR,-83.461,6.618,0.077,0.0255,0.0548,0.2646,1.113,-0.019,-9.534,0.000365,-0.00094,-0.000805,,,,,,,,,,"$VNYMR,-083.461,+006.618,+000.077,+00.0255,+00.0548,+00.2646,+01.113,-00.019,-09.534,+00.000365,-00.000940,-00.000805*65"
78,3.1200579470005323,vn200,VNYMR,-83.461,6.618,0.077,0.026,0.0558,0.265,1.101,-0.016,-9.533,-0.000674,-0.000256,-0.000458,,,,,,,,,,"$VNYMR,-083.461,+006.618,+000.077,+00.0260,+00.0558,+00.2650,+01.101,-00.016,-09.533,-00.000674,-00.000256,-00.000458*65"
79,3.160058867000771,vn200,VNYMR,-83.461,6.617,0.076,0.0255,0.0529,0.2653,1.105,-0.009,-9.568,0.000334,0.000733,0.000672,,,,,,,,,,"$VNYMR,-083.461,+006.617,+000.076,+00.0255,+00.0529,+00.2653,+01.105,-00.009,-09.568,+00.000334,+00.000733,+00.000672*67"
80,3.2000629720005236,vn200,VNYMR,-83.461,6.617,0.076,0.0265,0.0548,0.2643,1.122,-0.046,-9.551,1.7e-05,-0.000475,-0.000268,,,,,,,,,,"$VNYMR,-083.461,+006.617,+000.076,+00.0265,+00.0548,+00.2643,+01.122,-00.046,-09.551,+00.000017,-00.000475,-00.000268*6A"
81,3.240057947999958,vn200,VNYMR,-83.461,6.617,0.075,0.0264,0.0538,0.2653,1.095,-0.01,-9.552,-0.00125,0.000564,-0.000221,,,,,,,,,,"$VNYMR,-083.461,+006.617,+000.075,+00.0264,+00.0538,+00.2653,+01.095,-00.010,-09.552,-00.001250,+00.000564,-00.000221*6F"
82,3.2800555900012114,vn200,VNYMR,-83.462,6.617,0.074,0.0255,0.0538,0.2646,1.086,-0.029,-9.542,-0.000455,0.000587,0.000603,,,,,,,,,,"$VNYMR,-083.462,+006.617,+000.074,+00.0255,+00.0538,+00.2646,+01.086,-00.029,-09.542,-00.000455,+00.000587,+00.000603*6F"
83,3.3200565470015135,vn200,VNYMR,-83.462,6.617,0.074,0.0262,0.0541,0.2653,1.108,-0.036,-9.55,7.6e-05,-0.000252,0.000119,,,,,,,,,,"$VNYMR,-083.462,+006.617,+000.074,+00.0262,+00.0541,+00.2653,+01.108,-00.036,-09.550,+00.000076,-00.000252,+00.000119*6D"
84,3.360057782001604,vn200,VNYMR,-83.462,6.619,0.073,0.026,0.0538,0.2638,1.098,0.0,-9.563,0.000332,0.000187,-0.000861,,,,,,,,,,"$VNYMR,-083.462,+006.619,+000.073,+00.0260,+00.0538,+00.2638,+01.098,+00.000,-09.563,+00.000332,+00.000187,-00.000861*60"
85,3.400056462000066,vn200,VNYMR,-83.462,6.62,0.074,0.0255,0.0541,0.2629,1.131,-0.017,-9.549,-6.6e-05,0.000302,-0.000473,,,,,,,,,,"$VNYMR,-083.462,+006.620,+000.074,+00.0255,+00.0541,+00.2629,+01.131,-00.017,-09.549,-00.000066,+00.000302,-00.000473*6B"
86,3.440056289000495,vn200,VNYMR,-83.461,6.621,0.075,0.026,0.0538,0.2636,1.103,-0.019,-9.536,-1.7e-05,0.000213,0.00086,,,,,,,,,,"$VNYMR,-083.461,+006.621,+000.075,+00.0260,+00.0538,+00.2636,+01.103,-00.019,-09.536,-00.000017,+00.000213,+00.000860*66"
87,3.480055487001664,vn200,VNYMR,-83.46,6.621,0.074,0.025,0.0524,0.2646,1.112,-0.005,-9.511,-0.000139,0.001292,-8.7e-05,,,,,,,,,,"$VNYMR,-083.460,+006.621,+000.074,+00.0250,+00.0524,+00.2646,+01.112,-00.005,-09.511,-00.000139,+00.001292,-00.000087*65"
88,3.5200562410009297,vn200,VNYMR,-83.461,6.621,0.073,0.026,0.0521,0.2638,1.109,-0.008,-9.555,-0.000186,-0.00081,-0.000778,,,,,,,,,,"$VNYMR,-083.461,+006.621,+000.073,+00.0260,+00.0521,+00.2638,+01.109,-00.008,-09.555,-00.000186,-00.000810,-00.000778*6F"
89,3.5600561420014856,vn200,VNYMR,-83.463,6.622,0.073,0.0262,0.0538,0.2612,1.121,-0.037,-9.538,0.001065,-0.000227,-0.000804,,,,,,,,,,"$VNYMR,-083.463,+006.622,+000.073,+00.0262,+00.0538,+00.2612,+01.121,-00.037,-09.538,+00.001065,-00.000227,-00.000804*60"
90,3.6000554700003704,vn200,VNYMR,-83.464,6.622,0.072,0.0262,0.0529,0.2634,1.102,0.001,-9.521,0.00022,-0.000851,-0.000392,,,,,,,,,,"$VNYMR,-083.464,+006.622,+000.072,+00.0262,+00.0529,+00.2634,+01.102,+00.001,-09.521,+00.000220,-00.000851,-00.000392*65"
91,3.640055483001561,vn200,VNYMR,-83.464,6.622,0.071,0.0262,0.0548,0.2626,1.121,-0.016,-9.509,-4e-06,8.2e-05,-0.000366,,,,,,,,,,"$VNYMR,-083.464,+006.622,+000.071,+00.0262,+00.0548,+00.2626,+01.121,-00.016,-09.509,-00.000004,+00.000082,-00.000366*60"
92,3.68005845800144,vn200,VNYMR,-83.464,6.623,0.072,0.0262,0.0543,0.2638,1.125,-0.036,-9.515,-0.000631,-0.001235,-0.000731,,,,,,,,,,"$VNYMR,-083.464,+006.623,+000.072,+00.0262,+00.0543,+00.2638,+01.125,-00.036,-09.515,-00.000631,-00.001235,-00.000731*62"
93,3.7200563050009805,vn200,VNYMR,-83.465,6.623,0.073,0.0258,0.0541,0.2638,1.114,-0.018,-9.548,9.2e-05,-0.002101,-0.000628,,,,,,,,,,"$VNYMR,-083.465,+006.623,+000.073,+00.0258,+00.0541,+00.2638,+01.114,-00.018,-09.548,+00.000092,-00.002101,-00.000628*68"
94,3.7600559649999923,vn200,VNYMR,-83.464,6.624,0.071,0.0265,0.0538,0.2631,1.123,-0.011,-9.532,-0.001876,-0.001046,7.2e-05,,,,,,,,,,"$VNYMR,-083.464,+006.624,+000.071,+00.0265,+00.0538,+00.2631,+01.123,-00.011,-09.532,-00.001876,-00.001046,+00.000072*6E"
95,3.800055830000929,vn200,VNYMR,-83.463,6.625,0.068,0.0262,0.0553,0.2638,1.091,-0.01,-9.535,0.000142,0.000757,0.000602,,,,,,,,,,"$VNYMR,-083.463,+006.625,+000.068,+00.0262,+00.0553,+00.2638,+01.091,-00.010,-09.535,+00.000142,+00.000757,+00.000602*65"
96,3.8400568980014214,vn200,VNYMR,-83.462,6.624,0.07,0.0262,0.0538,0.2631,1.101,-0.022,-9.526,-0.001003,0.000834,-0.000463,,,,,,,,,,"$VNYMR,-083.462,+006.624,+000.070,+00.0262,+00.0538,+00.2631,+01.101,-00.022,-09.526,-00.001003,+00.000834,-00.000463*69"
97,3.880058448001364,vn200,VNYMR,-83.463,6.624,0.067,0.0269,0.0536,0.2641,1.118,0.004,-9.533,0.001101,0.000185,-0.000304,,,,,,,,,,"$VNYMR,-083.463,+006.624,+000.067,+00.0269,+00.0536,+00.2641,+01.118,+00.004,-09.533,+00.001101,+00.000185,-00.000304*62"
98,3.920058202000291,vn200,VNYMR,-83.464,6.625,0.069,0.0258,0.0548,0.2636,1.108,-0.026,-9.515,-0.000184,-0.000144,-0.000348,,,,,,,,,,"$VNYMR,-083.464,+006.625,+000.069,+00.0258,+00.0548,+00.2636,+01.108,-00.026,-09.515,-00.000184,-00.000144,-00.000348*6B"
99,3.9600561400002334,vn200,VNYMR,-83.462,6.626,0.071,0.0264,0.0531,0.2627,1.1,-0.027,-9.529,-0.001532,0.000191,0.000373,,,,,,,,,,"$VNYMR,-083.462,+006.626,+000.071,+00.0264,+00.0531,+00.2627,+01.100,-00.027,-09.529,-00.001532,+00.000191,+00.000373*68"
100,4.000055672000599,vn200,VNYMR,-83.462,6.625,0.072,0.0265,0.0536,0.2629,1.106,-0.0,-9.529,5.2e-05,0.000666,0.001014,,,,,,,,,,"$VNYMR,-083.462,+006.625,+000.072,+00.0265,+00.0536,+00.2629,+01.106,-00.000,-09.529,+00.000052,+00.000666,+00.001014*6B"
101,4.040058388000034,vn200,VNYMR,-83.462,6.624,0.073,0.0251,0.0548,0.2641,1.109,-0.011,-9.547,-0.000243,0.000587,8.1e-05,,,,,,,,,,"$VNYMR,-083.462,+006.624,+000.073,+00.0251,+00.0548,+00.2641,+01.109,-00.011,-09.547,-00.000243,+00.000587,+00.000081*69"
102,4.080057475001013,vn200,VNYMR,-83.462,6.624,0.072,0.0262,0.0524,0.2641,1.112,-0.012,-9.535,-0.000629,0.000324,-0.000714,,,,,,,,,,"$VNYMR,-083.462,+006.624,+000.072,+00.0262,+00.0524,+00.2641,+01.112,-00.012,-09.535,-00.000629,+00.000324,-00.000714*64"
103,4.120057617001294,vn200,VNYMR,-83.462,6.624,0.074,0.0258,0.0548,0.2636,1.094,-0.01,-9.505,-0.000795,0.001408,-0.001399,,,,,,,,,,"$VNYMR,-083.462,+006.624,+000.074,+00.0258,+00.0548,+00.2636,+01.094,-00.010,-09.505,-00.000795,+00.001408,-00.001399*61"
104,4.160057834000327,vn200,VNYMR,-83.461,6.623,0.074,0.025,0.0536,0.2641,1.112,-0.031,-9.501,-3.7e-05,-0.000864,0.000663,,,,,,,,,,"$VNYMR,-083.461,+006.623,+000.074,+00.0250,+00.0536,+00.2641,+01.112,-00.031,-09.501,-00.000037,-00.000864,+00.000663*65"
105,4.2000628280002275,vn200,VNYMR,-83.462,6.624,0.074,0.0265,0.0538,0.2631,1.097,-0.01,-9.512,-0.001411,-0.000487,0.000275,,,,,,,,,,"$VNYMR,-083.462,+006.624,+000.074,+00.0265,+00.0538,+00.2631,+01.097,-00.010,-09.512,-00.001411,-00.000487,+00.000275*60"
106,4.240058452000085,vn200,VNYMR,-83.462,6.624,0.074,0.0258,0.0548,0.2641,1.101,-0.018,-9.51,0.000803,-0.000186,-0.000551,,,,,,,,,,"$VNYMR,-083.462,+006.624,+000.074,+00.0258,+00.0548,+00.2641,+01.101,-00.018,-09.510,+00.000803,-00.000186,-00.000551*61"
107,4.280056798001169,vn200,VNYMR,-83.461,6.623,0.075,0.0264,0.0536,0.2643,1.122,-0.033,-9.541,0.000611,-0.001533,0.000323,,,,,,,,,,"$VNYMR,-083.461,+006.623,+000.075,+00.0264,+00.0536,+00.2643,+01.122,-00.033,-09.541,+00.000611,-00.001533,+00.000323*6F"
108,4.320056625001598,vn200,VNYMR,-83.459,6.623,0.074,0.0271,0.0538,0.2646,1.097,-0.013,-9.539,-0.000411,0.000268,-0.000126,,,,,,,,,,"$VNYMR,-083.459,+006.623,+000.074,+00.0271,+00.0538,+00.2646,+01.097,-00.013,-09.539,-00.000411,+00.000268,-00.000126*63"
109,4.360056842000631,vn200,VNYMR,-83.459,6.623,0.074,0.0269,0.0536,0.2638,1.12,-0.015,-9.516,0.000381,0.000347,-0.000422,,,,,,,,,,"$VNYMR,-083.459,+006.623,+000.074,+00.0269,+00.0536,+00.2638,+01.120,-00.015,-09.516,+00.000381,+00.000347,-00.000422*6E"
110,4.4000576510006795,vn200,VNYMR,-83.459,6.622,0.074,0.0246,0.056,0.2624,1.107,-0.013,-9.528,0.000592,-6.6e-05,-0.000658,,,,,,,,,,"$VNYMR,-083.459,+006.622,+000.074,+00.0246,+00.0560,+00.2624,+01.107,-00.013,-09.528,+00.000592,-00.000066,-00.000658*6F"
111,4.440057978999903,vn200,VNYMR,-83.46,6.621,0.075,0.0262,0.055,0.2622,1.107,-0.011,-9.548,-0.00028,-0.00101,-0.000307,,,,,,,,,,"$VNYMR,-083.460,+006.621,+000.075,+00.0262,+00.0550,+00.2622,+01.107,-00.011,-09.548,-00.000280,-00.001010,-00.000307*6D"
112,4.480058380000628,vn200,VNYMR,-83.46,6.622,0.074,0.0257,0.0529,0.2648,1.132,-0.011,-9.531,-0.001336,-2.6e-05,-0.000298,,,,,,,,,,"$VNYMR,-083.460,+006.622,+000.074,+00.0257,+00.0529,+00.2648,+01.132,-00.011,-09.531,-00.001336,-00.000026,-00.000298*6D"
113,4.520058430000063,vn200,VNYMR,-83.459,6.622,0.074,0.0258,0.0543,0.2643,1.094,-0.032,-9.555,-0.001065,0.000116,-4.3e-05,,,,,,,,,,"$VNYMR,-083.459,+006.622,+000.074,+00.0258,+00.0543,+00.2643,+01.094,-00.032,-09.555,-00.001065,+00.000116,-00.000043*64"
114,4.560057925000365,vn200,VNYMR,-83.459,6.622,0.073,0.0253,0.0546,0.2648,1.119,0.006,-9.512,-0.000205,0.000498,-0.000536,,,,,,,,,,"$VNYMR,-083.459,+006.622,+000.073,+00.0253,+00.0546,+00.2648,+01.119,+00.006,-09.512,-00.000205,+00.000498,-00.000536*61"
115,4.600057326000751,vn200,VNYMR,-83.46,6.622,0.072,0.026,0.055,0.2645,1.094,-0.032,-9.559,-0.000319,0.000983,-0.000418,,,,,,,,,,"$VNYMR,-083.460,+006.622,+000.072,+00.0260,+00.0550,+00.2645,+01.094,-00.032,-09.559,-00.000319,+00.000983,-00.000418*6C"
116,4.6400563580009475,vn200,VNYMR,-83.458,6.622,0.071,0.0257,0.0536,0.265,1.101,-0.034,-9.581,0.000605,-0.000213,0.001289,,,,,,,,,,"$VNYMR,-083.458,+006.622,+000.071,+00.0257,+00.0536,+00.2650,+01.101,-00.034,-09.581,+00.000605,-00.000213,+00.001289*69"
117,4.680057889001546,vn200,VNYMR,-83.456,6.621,0.072,0.026,0.0533,0.2638,1.11,0.001,-9.532,-0.000204,-7.2e-05,-0.000929,,,,,,,,,,"$VNYMR,-083.456,+006.621,+000.072,+00.0260,+00.0533,+00.2638,+01.110,+00.001,-09.532,-00.000204,-00.000072,-00.000929*60"
118,4.720056791000388,vn200,VNYMR,-83.456,6.619,0.07,0.0257,0.0538,0.2641,1.086,0.001,-9.526,-0.000675,0.001003,-0.000828,,,,,,,,,,"$VNYMR,-083.456,+006.619,+000.070,+00.0257,+00.0538,+00.2641,+01.086,+00.001,-09.526,-00.000675,+00.001003,-00.000828*60"
119,4.760055692000606,vn200,VNYMR,-83.457,6.619,0.068,0.0253,0.055,0.2619,1.112,-0.001,-9.524,0.000319,0.000153,-1e-05,,,,,,,,,,"$VNYMR,-083.457,+006.619,+000.068,+00.0253,+00.0550,+00.2619,+01.112,-00.001,-09.524,+00.000319,+00.000153,-00.000010*68"
120,4.80005622400131,vn200,VNYMR,-83.458,6.619,0.07,0.0264,0.0536,0.2643,1.128,0.002,-9.517,0.000419,-0.000463,0.001072,,,,,,,,,,"$VNYMR,-083.458,+006.619,+000.070,+00.0264,+00.0536,+00.2643,+01.128,+00.002,-09.517,+00.000419,-00.000463,+00.001072*6D"
121,4.840056218001337,vn200,VNYMR,-83.457,6.62,0.07,0.0269,0.056,0.2634,1.096,0.002,-9.501,-0.000606,0.001229,0.000861,,,,,,,,,,"$VNYMR,-083.457,+006.620,+000.070,+00.0269,+00.0560,+00.2634,+01.096,+00.002,-09.501,-00.000606,+00.001229,+00.000861*6B"
122,4.880055657000412,vn200,VNYMR,-83.456,6.619,0.07,0.0262,0.0536,0.2636,1.126,-0.0,-9.55,-0.000324,0.000321,0.000365,,,,,,,,,,"$VNYMR,-083.456,+006.619,+000.070,+00.0262,+00.0536,+00.2636,+01.126,-00.000,-09.550,-00.000324,+00.000321,+00.000365*62"
123,4.920056151000608,vn200,VNYMR,-83.457,6.619,0.07,0.0265,0.055,0.2634,1.094,-0.008,-9.514,-0.000564,-0.000279,-5e-06,,,,,,,,,,"$VNYMR,-083.457,+006.619,+000.070,+00.0265,+00.0550,+00.2634,+01.094,-00.008,-09.514,-00.000564,-00.000279,-00.000005*6D"
124,4.96005616399998,vn200,VNYMR,-83.456,6.62,0.069,0.0264,0.0533,0.2641,1.099,0.006,-9.539,0.000693,-0.000707,-0.000581,,,,,,,,,,"$VNYMR,-083.456,+006.620,+000.069,+00.0264,+00.0533,+00.2641,+01.099,+00.006,-09.539,+00.000693,-00.000707,-00.000581*6A"
125,5.00005606600098,vn200,VNYMR,-83.456,6.62,0.069,0.0262,0.0541,0.2622,1.072,-0.012,-9.516,0.000235,-0.001159,0.000454,,,,,,,,,,"$VNYMR,-083.456,+006.620,+000.069,+00.0262,+00.0541,+00.2622,+01.072,-00.012,-09.516,+00.000235,-00.001159,+00.000454*6C"
126,5.040057281999907,vn200,VNYMR,-83.456,6.62,0.069,0.0265,0.0546,0.2643,1.111,-0.041,-9.563,0.000125,0.00068,-0.000491,,,,,,,,,,"$VNYMR,-083.456,+006.620,+000.069,+00.0265,+00.0546,+00.2643,+01.111,-00.041,-09.563,+00.000125,+00.000680,-00.000491*62"
127,5.08005699900059,vn200,VNYMR,-83.456,6.621,0.069,0.0258,0.0543,0.2643,1.091,0.006,-9.544,0.000689,0.00061,0.000907,,,,,,,,,,"$VNYMR,-083.456,+006.621,+000.069,+00.0258,+00.0543,+00.2643,+01.091,+00.006,-09.544,+00.000689,+00.000610,+00.000907*6D"
128,5.120057956000892,vn200,VNYMR,-83.458,6.62,0.07,0.0248,0.0543,0.2653,1.116,-0.036,-9.5,-5.6e-05,-0.000465,-0.000702,,,,,,,,,,"$VNYMR,-083.458,+006.620,+000.070,+00.0248,+00.0543,+00.2653,+01.116,-00.036,-09.500,-00.000056,-00.000465,-00.000702*68"
129,5.160055987000305,vn200,VNYMR,-83.456,6.619,0.07,0.0264,0.0531,0.2629,1.11,0.003,-9.542,-0.000379,-0.000401,0.001498,,,,,,,,,,"$VNYMR,-083.456,+006.619,+000.070,+00.0264,+00.0531,+00.2629,+01.110,+00.003,-09.542,-00.000379,-00.000401,+00.001498*61"
130,5.20005977800065,vn200,VNYMR,-83.456,6.618,0.07,0.0255,0.0531,0.265,1.136,-0.025,-9.548,0.000309,0.000132,-0.00086,,,,,,,,,,"$VNYMR,-083.456,+006.618,+000.070,+00.0255,+00.0531,+00.2650,+01.136,-00.025,-09.548,+00.000309,+00.000132,-00.000860*6E"
131,5.240057846000127,vn200,VNYMR,-83.455,6.617,0.071,0.0258,0.055,0.2626,1.115,-0.002,-9.543,-0.000278,0.000447,0.000623,,,,,,,,,,"$VNYMR,-083.455,+006.617,+000.071,+00.0258,+00.0550,+00.2626,+01.115,-00.002,-09.543,-00.000278,+00.000447,+00.000623*6E"
132,5.280056100000365,vn200,VNYMR,-83.456,6.619,0.073,0.0257,0.0533,0.2641,1.123,-0.02,-9.541,0.000335,0.001371,0.000133,,,,,,,,,,"$VNYMR,-083.456,+006.619,+000.073,+00.0257,+00.0533,+00.2641,+01.123,-00.020,-09.541,+00.000335,+00.001371,+00.000133*66"
133,5.320056446000308,vn200,VNYMR,-83.455,6.621,0.073,0.0267,0.0536,0.2662,1.115,-0.027,-9.555,0.000258,-9e-06,-0.000483,,,,,,,,,,"$VNYMR,-083.455,+006.621,+000.073,+00.0267,+00.0536,+00.2662,+01.115,-00.027,-09.555,+00.000258,-00.000009,-00.000483*67"
134,5.360058866001054,vn200,VNYMR,-83.455,6.622,0.072,0.0255,0.0538,0.2648,1.116,-0.014,-9.522,-0.001113,0.000683,-0.000448,,,,,,,,,,"$VNYMR,-083.455,+006.622,+000.072,+00.0255,+00.0538,+00.2648,+01.116,-00.014,-09.522,-00.001113,+00.000683,-00.000448*6F"
135,5.400055897000129,vn200,VNYMR,-83.454,6.621,0.071,0.0253,0.0548,0.2645,1.102,-0.033,-9.532,-0.000997,-0.00057,-1.7e-05,,,,,,,,,,"$VNYMR,-083.454,+006.621,+000.071,+00.0253,+00.0548,+00.2645,+01.102,-00.033,-09.532,-00.000997,-00.000570,-00.000017*61"
136,5.440056762001404,vn200,VNYMR,-83.452,6.622,0.072,0.0267,0.0548,0.2648,1.116,-0.022,-9.536,0.001012,0.000171,-8e-06,,,,,,,,,,"$VNYMR,-083.452,+006.622,+000.072,+00.0267,+00.0548,+00.2648,+01.116,-00.022,-09.536,+00.001012,+00.000171,-00.000008*62"
137,5.480055757001537,vn200,VNYMR,-83.453,6.622,0.072,0.0258,0.0546,0.2631,1.102,-0.006,-9.551,0.000239,0.000162,-0.001472,,,,,,,,,,"$VNYMR,-083.453,+006.622,+000.072,+00.0258,+00.0546,+00.2631,+01.102,-00.006,-09.551,+00.000239,+00.000162,-00.001472*6D"
138,5.5200565660015855,vn200,VNYMR,-83.453,6.621,0.072,0.026,0.0548,0.2641,1.104,-0.006,-9.516,0.001085,-0.000401,-0.000293,,,,,,,,,,"$VNYMR,-083.453,+006.621,+000.072,+00.0260,+00.0548,+00.2641,+01.104,-00.006,-09.516,+00.001085,-00.000401,-00.000293*63"
139,5.560056282000005,vn200,VNYMR,-83.453,6.621,0.072,0.026,0.0538,0.2648,1.103,-0.014,-9.552,0.000168,0.000112,-0.000241,,,,,,,,,,"$VNYMR,-083.453,+006.621,+000.072,+00.0260,+00.0538,+00.2648,+01.103,-00.014,-09.552,+00.000168,+00.000112,-00.000241*64"
140,5.600055554001301,vn200,VNYMR,-83.453,6.622,0.071,0.0258,0.0548,0.2631,1.134,-0.021,-9.547,-0.000136,-0.000184,-0.000372,,,,,,,,,,"$VNYMR,-083.453,+006.622,+000.071,+00.0258,+00.0548,+00.2631,+01.134,-00.021,-09.547,-00.000136,-00.000184,-00.000372*65"
141,5.640055586000017,vn200,VNYMR,-83.453,6.62,0.071,0.026,0.0548,0.265,1.082,0.008,-9.554,-0.000512,0.000721,0.000376,,,,,,,,,,"$VNYMR,-083.453,+006.620,+000.071,+00.0260,+00.0548,+00.2650,+01.082,+00.008,-09.554,-00.000512,+00.000721,+00.000376*67"
142,5.6800565060002555,vn200,VNYMR,-83.453,6.619,0.072,0.0267,0.0538,0.2626,1.111,-0.029,-9.508,0.000152,-0.000573,-0.000114,,,,,,,,,,"$VNYMR,-083.453,+006.619,+000.072,+00.0267,+00.0538,+00.2626,+01.111,-00.029,-09.508,+00.000152,-00.000573,-00.000114*6D"
143,5.720055649000642,vn200,VNYMR,-83.453,6.619,0.072,0.0253,0.0548,0.2643,1.108,-0.02,-9.514,0.000658,0.000584,0.000494,,,,,,,,,,"$VNYMR,-083.453,+006.619,+000.072,+00.0253,+00.0548,+00.2643,+01.108,-00.020,-09.514,+00.000658,+00.000584,+00.000494*6A"
144,5.760056143000838,vn200,VNYMR,-83.45,6.621,0.071,0.026,0.0533,0.2643,1.099,-0.0,-9.562,-0.000304,-0.000492,0.000726,,,,,,,,,,"$VNYMR,-083.450,+006.621,+000.071,+00.0260,+00.0533,+00.2643,+01.099,-00.000,-09.562,-00.000304,-00.000492,+00.000726*67"
145,5.800056211000992,vn200,VNYMR,-83.452,6.621,0.071,0.0257,0.0529,0.2648,1.123,-0.005,-9.554,7.2e-05,0.000719,-0.001333,,,,,,,,,,"$VNYMR,-083.452,+006.621,+000.071,+00.0257,+00.0529,+00.2648,+01.123,-00.005,-09.554,+00.000072,+00.000719,-00.001333*64"
146,5.840056113000173,vn200,VNYMR,-83.452,6.62,0.071,0.0269,0.0558,0.2629,1.11,-0.022,-9.581,-0.000212,0.000641,-0.000543,,,,,,,,,,"$VNYMR,-083.452,+006.620,+000.071,+00.0269,+00.0558,+00.2629,+01.110,-00.022,-09.581,-00.000212,+00.000641,-00.000543*6A"
147,5.880056274001618,vn200,VNYMR,-83.451,6.619,0.071,0.026,0.0546,0.2624,1.134,-0.022,-9.557,-0.001116,-0.000531,0.00029,,,,,,,,,,"$VNYMR,-083.451,+006.619,+000.071,+00.0260,+00.0546,+00.2624,+01.134,-00.022,-09.557,-00.001116,-00.000531,+00.000290*6E"
148,5.920055472000968,vn200,VNYMR,-83.451,6.618,0.07,0.0269,0.0521,0.2653,1.105,0.004,-9.56,-0.00053,3.3e-05,0.000645,,,,,,,,,,"$VNYMR,-083.451,+006.618,+000.070,+00.0269,+00.0521,+00.2653,+01.105,+00.004,-09.560,-00.000530,+00.000033,+00.000645*6E"
149,5.960058041000593,vn200,VNYMR,-83.452,6.619,0.069,0.0258,0.055,0.2617,1.105,-0.027,-9.536,0.000363,-0.000683,-0.001635,,,,,,,,,,"$VNYMR,-083.452,+006.619,+000.069,+00.0258,+00.0550,+00.2617,+01.105,-00.027,-09.536,+00.000363,-00.000683,-00.001635*69"
150,6.000057683000705,vn200,VNYMR,-83.452,6.617,0.069,0.0251,0.0553,0.2641,1.109,-0.015,-9.563,-0.000226,-5.1e-05,0.000274,,,,,,,,,,"$VNYMR,-083.452,+006.617,+000.069,+00.0251,+00.0553,+00.2641,+01.109,-00.015,-09.563,-00.000226,-00.000051,+00.000274*6A"
151,6.0400587520016416,vn200,VNYMR,-83.453,6.618,0.069,0.0258,0.0555,0.2631,1.098,-0.01,-9.538,-0.000278,0.000589,2e-05,,,,,,,,,,"$VNYMR,-083.453,+006.618,+000.069,+00.0258,+00.0555,+00.2631,+01.098,-00.010,-09.538,-00.000278,+00.000589,+00.000020*60"
152,6.080058393999934,vn200,VNYMR,-83.453,6.617,0.07,0.026,0.055,0.2617,1.112,-0.035,-9.558,0.000203,-0.000787,8.8e-05,,,,,,,,,,"$VNYMR,-083.453,+006.617,+000.070,+00.0260,+00.0550,+00.2617,+01.112,-00.035,-09.558,+00.000203,-00.000787,+00.000088*6D"
153,6.120057814001484,vn200,VNYMR,-83.453,6.617,0.07,0.0264,0.0526,0.2646,1.106,0.01,-9.537,-6.4e-05,-0.00052,0.000525,,,,,,,,,,"$VNYMR,-083.453,+006.617,+000.070,+00.0264,+00.0526,+00.2646,+01.106,+00.010,-09.537,-00.000064,-00.000520,+00.000525*69"
154,6.160058031000517,vn200,VNYMR,-83.452,6.617,0.073,0.0264,0.0529,0.2627,1.112,-0.013,-9.544,0.000302,-0.000934,0.000369,,,,,,,,,,"$VNYMR,-083.452,+006.617,+000.073,+00.0264,+00.0529,+00.2627,+01.112,-00.013,-09.544,+00.000302,-00.000934,+00.000369*65"
155,6.200059933000375,vn200,VNYMR,-83.452,6.617,0.073,0.0264,0.0541,0.265,1.099,-0.001,-9.52,-0.00049,2.6e-05,0.000572,,,,,,,,,,"$VNYMR,-083.452,+006.617,+000.073,+00.0264,+00.0541,+00.2650,+01.099,-00.001,-09.520,-00.000490,+00.000026,+00.000572*62"
156,6.240058149000106,vn200,VNYMR,-83.45,6.617,0.072,0.0267,0.0543,0.2646,1.116,-0.002,-9.557,0.000145,0.000339,0.000994,,,,,,,,,,"$VNYMR,-083.450,+006.617,+000.072,+00.0267,+00.0543,+00.2646,+01.116,-00.002,-09.557,+00.000145,+00.000339,+00.000994*60"
157,6.280056847001106,vn200,VNYMR,-83.449,6.617,0.071,0.0255,0.0543,0.2631,1.098,0.012,-9.521,0.000458,-0.00068,0.000286,,,,,,,,,,"$VNYMR,-083.449,+006.617,+000.071,+00.0255,+00.0543,+00.2631,+01.098,+00.012,-09.521,+00.000458,-00.000680,+00.000286*6B"
158,6.320056434000435,vn200,VNYMR,-83.449,6.618,0.07,0.026,0.0546,0.2629,1.111,-0.019,-9.563,0.000224,0.000252,0.000355,,,,,,,,,,"$VNYMR,-083.449,+006.618,+000.070,+00.0260,+00.0546,+00.2629,+01.111,-00.019,-09.563,+00.000224,+00.000252,+00.000355*6B"
159,6.3600559100013925,vn200,VNYMR,-83.449,6.62,0.071,0.025,0.0536,0.2629,1.11,-0.003,-9.551,0.000198,-0.000241,0.000388,,,,,,,,,,"$VNYMR,-083.449,+006.620,+000.071,+00.0250,+00.0536,+00.2629,+01.110,-00.003,-09.551,+00.000198,-00.000241,+00.000388*6E"
160,6.400056312000743,vn200,VNYMR,-83.449,6.62,0.072,0.0269,0.0524,0.2634,1.122,-0.037,-9.545,-0.000761,-0.000557,0.000143,,,,,,,,,,"$VNYMR,-083.449,+006.620,+000.072,+00.0269,+00.0524,+00.2634,+01.122,-00.037,-09.545,-00.000761,-00.000557,+00.000143*68"
161,6.440056288000051,vn200,VNYMR,-83.448,6.62,0.073,0.0255,0.0536,0.2638,1.115,0.001,-9.56,5.4e-05,-0.000799,-0.001017,,,,,,,,,,"$VNYMR,-083.448,+006.620,+000.073,+00.0255,+00.0536,+00.2638,+01.115,+00.001,-09.560,+00.000054,-00.000799,-00.001017*68"
162,6.480055818999972,vn200,VNYMR,-83.449,6.62,0.073,0.0258,0.056,0.2633,1.117,-0.005,-9.538,-0.00049,0.001174,-0.000575,,,,,,,,,,"$VNYMR,-083.449,+006.620,+000.073,+00.0258,+00.0560,+00.2633,+01.117,-00.005,-09.538,-00.000490,+00.001174,-00.000575*69"
163,6.520056203000422,vn200,VNYMR,-83.449,6.62,0.073,0.025,0.0546,0.2655,1.127,-0.02,-9.568,-0.000398,0.000399,0.000462,,,,,,,,,,"$VNYMR,-083.449,+006.620,+000.073,+00.0250,+00.0546,+00.2655,+01.127,-00.020,-09.568,-00.000398,+00.000399,+00.000462*6A"
164,6.560056160000386,vn200,VNYMR,-83.448,6.62,0.074,0.026,0.0538,0.2636,1.112,-0.011,-9.536,-0.000445,-0.000533,0.001517,,,,,,,,,,"$VNYMR,-083.448,+006.620,+000.074,+00.0260,+00.0538,+00.2636,+01.112,-00.011,-09.536,-00.000445,-00.000533,+00.001517*69"
165,6.600055468999926,vn200,VNYMR,-83.448,6.62,0.075,0.0265,0.0541,0.2626,1.121,0.001,-9.528,0.000123,-0.000227,1.6e-05,,,,,,,,,,"$VNYMR,-083.448,+006.620,+000.075,+00.0265,+00.0541,+00.2626,+01.121,+00.001,-09.528,+00.000123,-00.000227,+00.000016*6E"
166,6.640055649000715,vn200,VNYMR,-83.449,6.618,0.074,0.0262,0.0538,0.2629,1.123,-0.011,-9.52,-0.000667,0.001017,-0.000197,,,,,,,,,,"$VNYMR,-083.449,+006.618,+000.074,+00.0262,+00.0538,+00.2629,+01.123,-00.011,-09.520,-00.000667,+00.001017,-00.000197*67"
167,6.680058032001398,vn200,VNYMR,-83.45,6.618,0.075,0.0255,0.0541,0.2653,1.12,-0.026,-9.537,0.000562,-0.00027,-0.000472,,,,,,,,,,"$VNYMR,-083.450,+006.618,+000.075,+00.0255,+00.0541,+00.2653,+01.120,-00.026,-09.537,+00.000562,-00.000270,-00.000472*62"
168,6.720056064001255,vn200,VNYMR,-83.449,6.617,0.075,0.0265,0.0558,0.2643,1.104,-0.016,-9.57,-0.000849,-0.000467,-0.001326,,,,,,,,,,"$VNYMR,-083.449,+006.617,+000.075,+00.0265,+00.0558,+00.2643,+01.104,-00.016,-09.570,-00.000849,-00.000467,-00.001326*6C"
169,6.760058095000204,vn200,VNYMR,-83.45,6.619,0.075,0.0258,0.0543,0.2619,1.105,-0.011,-9.534,-0.000569,0.001132,0.000492,,,,,,,,,,"$VNYMR,-083.450,+006.619,+000.075,+00.0258,+00.0543,+00.2619,+01.105,-00.011,-09.534,-00.000569,+00.001132,+00.000492*65"
170,6.800056145000781,vn200,VNYMR,-83.452,6.621,0.075,0.0264,0.0541,0.2648,1.112,-0.032,-9.527,0.001183,-0.000827,-0.001058,,,,,,,,,,"$VNYMR,-083.452,+006.621,+000.075,+00.0264,+00.0541,+00.2648,+01.112,-00.032,-09.527,+00.001183,-00.000827,-00.001058*68"
171,6.840058936000787,vn200,VNYMR,-83.452,6.622,0.074,0.0255,0.0553,0.2634,1.109,0.01,-9.558,-0.000463,-0.000505,0.000504,,,,,,,,,,"$VNYMR,-083.452,+006.622,+000.074,+00.0255,+00.0553,+00.2634,+01.109,+00.010,-09.558,-00.000463,-00.000505,+00.000504*6E"
172,6.880056578000222,vn200,VNYMR,-83.452,6.621,0.074,0.0264,0.0548,0.2674,1.087,-0.018,-9.503,0.001029,0.000478,-2.4e-05,,,,,,,,,,"$VNYMR,-083.452,+006.621,+000.074,+00.0264,+00.0548,+00.2674,+01.087,-00.018,-09.503,+00.001029,+00.000478,-00.000024*67"
173,6.920058016999974,vn200,VNYMR,-83.453,6.619,0.075,0.0265,0.0536,0.2626,1.099,-0.018,-9.543,-0.00098,-0.000932,0.001176,,,,,,,,,,"$VNYMR,-083.453,+006.619,+000.075,+00.0265,+00.0536,+00.2626,+01.099,-00.018,-09.543,-00.000980,-00.000932,+00.001176*61"
174,6.9600570860002335,vn200,VNYMR,-83.454,6.619,0.076,0.025,0.0541,0.2641,1.116,-0.011,-9.538,0.000877,0.000867,0.000509,,,,,,,,,,"$VNYMR,-083.454,+006.619,+000.076,+00.0250,+00.0541,+00.2641,+01.116,-00.011,-09.538,+00.000877,+00.000867,+00.000509*64"
175,7.000057839000874,vn200,VNYMR,-83.455,6.62,0.076,0.025,0.0536,0.2634,1.1,0.002,-9.518,0.000276,-0.000145,0.000427,,,,,,,,,,"$VNYMR,-083.455,+006.620,+000.076,+00.0250,+00.0536,+00.2634,+01.100,+00.002,-09.518,+00.000276,-00.000145,+00.000427*65"
176,7.040058426000542,vn200,VNYMR,-83.455,6.62,0.077,0.0255,0.0529,0.2653,1.088,-0.01,-9.536,0.000189,-0.000251,0.000562,,,,,,,,,,"$VNYMR,-083.455,+006.620,+000.077,+00.0255,+00.0529,+00.2653,+01.088,-00.010,-09.536,+00.000189,-00.000251,+00.000562*63"
177,7.080057810000653,vn200,VNYMR,-83.455,6.621,0.076,0.0253,0.0531,0.2631,1.125,-0.005,-9.558,0.000454,-0.000104,0.000758,,,,,,,,,,"$VNYMR,-083.455,+006.621,+000.076,+00.0253,+00.0531,+00.2631,+01.125,-00.005,-09.558,+00.000454,-00.000104,+00.000758*6F"
178,7.120057878000807,vn200,VNYMR,-83.455,6.621,0.076,0.0262,0.0558,0.2641,1.082,-0.02,-9.522,0.000929,0.000945,-0.000555,,,,,,,,,,"$VNYMR,-083.455,+006.621,+000.076,+00.0262,+00.0558,+00.2641,+01.082,-00.020,-09.522,+00.000929,+00.000945,-00.000555*66"
179,7.16005650200168,vn200,VNYMR,-83.456,6.62,0.078,0.0257,0.0521,0.2629,1.084,-0.018,-9.557,-0.000153,0.000666,9.9e-05,,,,,,,,,,"$VNYMR,-083.456,+006.620,+000.078,+00.0257,+00.0521,+00.2629,+01.084,-00.018,-09.557,-00.000153,+00.000666,+00.000099*6D"
180,7.200059978000354,vn200,VNYMR,-83.456,6.62,0.078,0.0262,0.0541,0.2646,1.111,-0.003,-9.499,-0.000551,0.00032,-0.000468,,,,,,,,,,"$VNYMR,-083.456,+006.620,+000.078,+00.0262,+00.0541,+00.2646,+01.111,-00.003,-09.499,-00.000551,+00.000320,-00.000468*6D"
181,7.240057861001333,vn200,VNYMR,-83.455,6.622,0.078,0.0265,0.0543,0.261,1.12,-0.039,-9.559,0.000838,0.000134,0.000581,,,,,,,,,,"$VNYMR,-083.455,+006.622,+000.078,+00.0265,+00.0543,+00.2610,+01.120,-00.039,-09.559,+00.000838,+00.000134,+00.000581*6F"
182,7.280058319000091,vn200,VNYMR,-83.456,6.623,0.079,0.0255,0.0548,0.2643,1.118,-0.001,-9.533,-0.000686,2e-05,-0.001456,,,,,,,,,,"$VNYMR,-083.456,+006.623,+000.079,+00.0255,+00.0548,+00.2643,+01.118,-00.001,-09.533,-00.000686,+00.000020,-00.001456*6B"
183,7.320056665001175,vn200,VNYMR,-83.455,6.621,0.079,0.0253,0.0529,0.2634,1.085,-0.018,-9.527,0.00045,-0.000574,-0.000321,,,,,,,,,,"$VNYMR,-083.455,+006.621,+000.079,+00.0253,+00.0529,+00.2634,+01.085,-00.018,-09.527,+00.000450,-00.000574,-00.000321*68"
184,7.360056567000356,vn200,VNYMR,-83.456,6.62,0.079,0.0262,0.0543,0.2624,1.097,-0.009,-9.555,-0.000292,0.000622,0.000132,,,,,,,,,,"$VNYMR,-083.456,+006.620,+000.079,+00.0262,+00.0543,+00.2624,+01.097,-00.009,-09.555,-00.000292,+00.000622,+00.000132*6D"
185,7.400056228001631,vn200,VNYMR,-83.458,6.618,0.078,0.0262,0.0546,0.2665,1.099,0.0,-9.519,-0.000345,-0.000854,-0.000185,,,,,,,,,,"$VNYMR,-083.458,+006.618,+000.078,+00.0262,+00.0546,+00.2665,+01.099,+00.000,-09.519,-00.000345,-00.000854,-00.000185*68"
186,7.440056463001383,vn200,VNYMR,-83.457,6.617,0.077,0.0257,0.0541,0.2662,1.109,-0.006,-9.542,-0.000146,-0.000924,-0.000143,,,,,,,,,,"$VNYMR,-083.457,+006.617,+000.077,+00.0257,+00.0541,+00.2662,+01.109,-00.006,-09.542,-00.000146,-00.000924,-00.000143*6A"
187,7.480056124000839,vn200,VNYMR,-83.458,6.616,0.077,0.026,0.0543,0.2617,1.129,0.013,-9.525,-8.7e-05,-0.000466,-0.00085,,,,,,,,,,"$VNYMR,-083.458,+006.616,+000.077,+00.0260,+00.0543,+00.2617,+01.129,+00.013,-09.525,-00.000087,-00.000466,-00.000850*6D"
188,7.520056377999936,vn200,VNYMR,-83.458,6.617,0.076,0.0258,0.0543,0.2634,1.118,-0.026,-9.527,0.000309,-0.000281,-0.001095,,,,,,,,,,"$VNYMR,-083.458,+006.617,+000.076,+00.0258,+00.0543,+00.2634,+01.118,-00.026,-09.527,+00.000309,-00.000281,-00.001095*6B"
189,7.560057687000153,vn200,VNYMR,-83.458,6.618,0.078,0.0262,0.0553,0.2636,1.095,-0.021,-9.568,0.000629,0.000785,-0.000363,,,,,,,,,,"$VNYMR,-083.458,+006.618,+000.078,+00.0262,+00.0553,+00.2636,+01.095,-00.021,-09.568,+00.000629,+00.000785,-00.000363*63"
190,7.600058163001449,vn200,VNYMR,-83.457,6.618,0.078,0.0264,0.0521,0.2615,1.096,-0.018,-9.53,0.000929,0.000276,0.001203,,,,,,,,,,"$VNYMR,-083.457,+006.618,+000.078,+00.0264,+00.0521,+00.2615,+01.096,-00.018,-09.530,+00.000929,+00.000276,+00.001203*6C"
191,7.6400574350009265,vn200,VNYMR,-83.457,6.618,0.077,0.0265,0.055,0.2631,1.085,-0.019,-9.55,0.00021,-0.000627,-0.000449,,,,,,,,,,"$VNYMR,-083.457,+006.618,+000.077,+00.0265,+00.0550,+00.2631,+01.085,-00.019,-09.550,+00.000210,-00.000627,-00.000449*6F"
192,7.680057430001398,vn200,VNYMR,-83.457,6.62,0.079,0.026,0.0531,0.2638,1.094,-0.005,-9.52,0.000627,-0.000149,-9.4e-05,,,,,,,,,,"$VNYMR,-083.457,+006.620,+000.079,+00.0260,+00.0531,+00.2638,+01.094,-00.005,-09.520,+00.000627,-00.000149,-00.000094*60"
193,7.720056869000473,vn200,VNYMR,-83.456,6.62,0.078,0.026,0.0531,0.2648,1.117,-0.005,-9.543,-2e-06,-0.000121,0.000999,,,,,,,,,,"$VNYMR,-083.456,+006.620,+000.078,+00.0260,+00.0531,+00.2648,+01.117,-00.005,-09.543,-00.000002,-00.000121,+00.000999*63"
194,7.760056586001156,vn200,VNYMR,-83.456,6.619,0.078,0.0267,0.0546,0.2617,1.106,-0.045,-9.553,-0.000126,0.001372,-0.001129,,,,,,,,,,"$VNYMR,-083.456,+006.619,+000.078,+00.0267,+00.0546,+00.2617,+01.106,-00.045,-09.553,-00.000126,+00.001372,-00.001129*61"
195,7.800056523999956,vn200,VNYMR,-83.457,6.62,0.077,0.026,0.0538,0.2662,1.088,-0.021,-9.543,0.000326,0.000106,-0.000192,,,,,,,,,,"$VNYMR,-083.457,+006.620,+000.077,+00.0260,+00.0538,+00.2662,+01.088,-00.021,-09.543,+00.000326,+00.000106,-00.000192*68"
196,7.840056741000808,vn200,VNYMR,-83.456,6.618,0.079,0.0246,0.0531,0.2631,1.103,-0.043,-9.552,-0.000236,-0.00056,0.000793,,,,,,,,,,"$VNYMR,-083.456,+006.618,+000.079,+00.0246,+00.0531,+00.2631,+01.103,-00.043,-09.552,-00.000236,-00.000560,+00.000793*64"
197,7.880056458001491,vn200,VNYMR,-83.456,6.619,0.077,0.0255,0.0543,0.2617,1.107,-0.019,-9.523,-0.00117,0.000281,0.000584,,,,,,,,,,"$VNYMR,-083.456,+006.619,+000.077,+00.0255,+00.0543,+00.2617,+01.107,-00.019,-09.523,-00.001170,+00.000281,+00.000584*6F"
198,7.920056619001116,vn200,VNYMR,-83.457,6.618,0.077,0.0253,0.0553,0.2643,1.124,-0.005,-9.545,2.6e-05,0.000746,-0.000669,,,,,,,,,,"$VNYMR,-083.457,+006.618,+000.077,+00.0253,+00.0553,+00.2643,+01.124,-00.005,-09.545,+00.000026,+00.000746,-00.000669*68"
199,7.9600564100001066,vn200,VNYMR,-83.457,6.618,0.076,0.026,0.0536,0.2648,1.106,-0.01,-9.509,-1.9e-05,-0.000561,-6.2e-05,,,,,,,,,,"$VNYMR,-083.457,+006.618,+000.076,+00.0260,+00.0536,+00.2648,+01.106,-00.010,-09.509,-00.000019,-00.000561,-00.000062*6B"
200,8.000055923001128,vn200,VNYMR,-83.456,6.616,0.076,0.026,0.0529,0.2634,1.118,-0.038,-9.525,-0.000105,-0.000626,-0.000794,,,,,,,,,,"$VNYMR,-083.456,+006.616,+000.076,+00.0260,+00.0529,+00.2634,+01.118,-00.038,-09.525,-00.000105,-00.000626,-00.000794*68"
201,8.040059269000267,vn200,VNYMR,-83.456,6.616,0.077,0.026,0.0548,0.265,1.112,-0.046,-9.56,-0.000937,-0.000219,-0.000208,,,,,,,,,,"$VNYMR,-083.456,+006.616,+000.077,+00.0260,+00.0548,+00.2650,+01.112,-00.046,-09.560,-00.000937,-00.000219,-00.000208*6F"
202,8.080056374999913,vn200,VNYMR,-83.454,6.618,0.076,0.0253,0.0548,0.2638,1.137,-0.023,-9.525,0.000275,0.001033,0.001411,,,,,,,,,,"$VNYMR,-083.454,+006.618,+000.076,+00.0253,+00.0548,+00.2638,+01.137,-00.023,-09.525,+00.000275,+00.001033,+00.001411*66"
203,8.120054480001272,vn200,VNYMR,-83.453,6.618,0.078,0.0265,0.0543,0.2619,1.115,-0.036,-9.551,-1.1e-05,0.000252,-0.001561,,,,,,,,,,"$VNYMR,-083.453,+006.618,+000.078,+00.0265,+00.0543,+00.2619,+01.115,-00.036,-09.551,-00.000011,+00.000252,-00.001561*67"
204,8.160055234000538,vn200,VNYMR,-83.452,6.616,0.078,0.0262,0.0524,0.2624,1.115,-0.011,-9.534,3.6e-05,-0.000139,0.00018,,,,,,,,,,"$VNYMR,-083.452,+006.616,+000.078,+00.0262,+00.0524,+00.2624,+01.115,-00.011,-09.534,+00.000036,-00.000139,+00.000180*61"
205,8.20006235800065,vn200,VNYMR,-83.452,6.615,0.078,0.0255,0.0538,0.2653,1.107,-0.013,-9.574,-0.000213,-0.000626,-0.000459,,,,,,,,,,"$VNYMR,-083.452,+006.615,+000.078,+00.0255,+00.0538,+00.2653,+01.107,-00.013,-09.574,-00.000213,-00.000626,-00.000459*63"
206,8.240057964001608,vn200,VNYMR,-83.452,6.614,0.078,0.0262,0.0536,0.2624,1.085,-0.015,-9.522,-0.000227,0.000213,-0.000352,,,,,,,,,,"$VNYMR,-083.452,+006.614,+000.078,+00.0262,+00.0536,+00.2624,+01.085,-00.015,-09.522,-00.000227,+00.000213,-00.000352*69"
207,8.28005660600138,vn200,VNYMR,-83.452,6.614,0.077,0.0258,0.0555,0.2626,1.12,-0.002,-9.525,0.000297,0.001356,-0.000156,,,,,,,,,,"$VNYMR,-083.452,+006.614,+000.077,+00.0258,+00.0555,+00.2626,+01.120,-00.002,-09.525,+00.000297,+00.001356,-00.000156*6D"
208,8.32005882300109,vn200,VNYMR,-83.452,6.615,0.077,0.0248,0.0546,0.265,1.096,-0.018,-9.548,-0.001099,-0.000477,-3.1e-05,,,,,,,,,,"$VNYMR,-083.452,+006.615,+000.077,+00.0248,+00.0546,+00.2650,+01.096,-00.018,-09.548,-00.001099,-00.000477,-00.000031*6A"
209,8.360059299000568,vn200,VNYMR,-83.453,6.615,0.078,0.025,0.0543,0.2653,1.091,0.003,-9.527,-0.000167,0.000478,-0.001088,,,,,,,,,,"$VNYMR,-083.453,+006.615,+000.078,+00.0250,+00.0543,+00.2653,+01.091,+00.003,-09.527,-00.000167,+00.000478,-00.001088*62"
210,8.400058516001081,vn200,VNYMR,-83.452,6.614,0.078,0.026,0.0541,0.2648,1.113,-0.004,-9.537,-0.000345,0.000845,0.000901,,,,,,,,,,"$VNYMR,-083.452,+006.614,+000.078,+00.0260,+00.0541,+00.2648,+01.113,-00.004,-09.537,-00.000345,+00.000845,+00.000901*6D"
211,8.44005823200132,vn200,VNYMR,-83.453,6.616,0.078,0.0258,0.0548,0.2631,1.116,-0.037,-9.499,0.000342,-0.000268,0.000589,,,,,,,,,,"$VNYMR,-083.453,+006.616,+000.078,+00.0258,+00.0548,+00.2631,+01.116,-00.037,-09.499,+00.000342,-00.000268,+00.000589*6C"
212,8.480058486000416,vn200,VNYMR,-83.453,6.616,0.078,0.0248,0.0555,0.2634,1.134,-0.01,-9.531,8.3e-05,-0.000561,0.000526,,,,,,,,,,"$VNYMR,-083.453,+006.616,+000.078,+00.0248,+00.0555,+00.2634,+01.134,-00.010,-09.531,+00.000083,-00.000561,+00.000526*67"
213,8.520058666001205,vn200,VNYMR,-83.453,6.615,0.078,0.0257,0.0524,0.2636,1.096,-0.007,-9.529,-0.000887,-0.001264,7e-06,,,,,,,,,,"$VNYMR,-083.453,+006.615,+000.078,+00.0257,+00.0524,+00.2636,+01.096,-00.007,-09.529,-00.000887,-00.001264,+00.000007*67"
214,8.560057346001486,vn200,VNYMR,-83.451,6.615,0.077,0.025,0.0533,0.2648,1.115,-0.024,-9.552,-0.000614,0.00048,0.000128,,,,,,,,,,"$VNYMR,-083.451,+006.615,+000.077,+00.0250,+00.0533,+00.2648,+01.115,-00.024,-09.552,-00.000614,+00.000480,+00.000128*66"
215,8.600057044001005,vn200,VNYMR,-83.45,6.615,0.077,0.0265,0.0541,0.2641,1.101,-0.025,-9.542,-0.00069,-7.7e-05,-6.4e-05,,,,,,,,,,"$VNYMR,-083.450,+006.615,+000.077,+00.0265,+00.0541,+00.2641,+01.101,-00.025,-09.542,-00.000690,-00.000077,-00.000064*61"
216,8.640057427001011,vn200,VNYMR,-83.449,6.614,0.078,0.0265,0.0538,0.2634,1.097,0.003,-9.528,0.000867,0.000158,-0.000646,,,,,,,,,,"$VNYMR,-083.449,+006.614,+000.078,+00.0265,+00.0538,+00.2634,+01.097,+00.003,-09.528,+00.000867,+00.000158,-00.000646*67"
217,8.680058551000911,vn200,VNYMR,-83.449,6.613,0.078,0.0267,0.0558,0.2634,1.102,-0.008,-9.5,-0.000679,0.000134,-0.000268,,,,,,,,,,"$VNYMR,-083.449,+006.613,+000.078,+00.0267,+00.0558,+00.2634,+01.102,-00.008,-09.500,-00.000679,+00.000134,-00.000268*6B"
218,8.720058287000938,vn200,VNYMR,-83.449,6.613,0.077,0.0267,0.0543,0.2617,1.112,-0.001,-9.54,0.000596,0.000557,-0.000142,,,,,,,,,,"$VNYMR,-083.449,+006.613,+000.077,+00.0267,+00.0543,+00.2617,+01.112,-00.001,-09.540,+00.000596,+00.000557,-00.000142*6D"
219,8.760058392001156,vn200,VNYMR,-83.449,6.613,0.076,0.0267,0.0543,0.2636,1.128,-0.004,-9.526,-0.00094,-0.000943,0.001108,,,,,,,,,,"$VNYMR,-083.449,+006.613,+000.076,+00.0267,+00.0543,+00.2636,+01.128,-00.004,-09.526,-00.000940,-00.000943,+00.001108*64"
220,8.800056683001458,vn200,VNYMR,-83.452,6.615,0.077,0.0255,0.0528,0.2622,1.086,-0.046,-9.549,0.000153,0.000424,3.3e-05,,,,,,,,,,"$VNYMR,-083.452,+006.615,+000.077,+00.0255,+00.0528,+00.2622,+01.086,-00.046,-09.549,+00.000153,+00.000424,+00.000033*64"
221,8.840058806999878,vn200,VNYMR,-83.45,6.615,0.078,0.0267,0.0538,0.2636,1.139,0.034,-9.535,-0.000276,-0.001094,0.000928,,,,,,,,,,"$VNYMR,-083.450,+006.615,+000.078,+00.0267,+00.0538,+00.2636,+01.139,+00.034,-09.535,-00.000276,-00.001094,+00.000928*68"
222,8.880056006000814,vn200,VNYMR,-83.45,6.616,0.077,0.0265,0.0538,0.2636,1.105,-0.02,-9.534,-0.000238,-0.000523,0.000325,,,,,,,,,,"$VNYMR,-083.450,+006.616,+000.077,+00.0265,+00.0538,+00.2636,+01.105,-00.020,-09.534,-00.000238,-00.000523,+00.000325*6E"
223,8.920056408000164,vn200,VNYMR,-83.45,6.614,0.077,0.0255,0.0553,0.2655,1.103,0.008,-9.546,-0.000242,3.9e-05,0.000575,,,,,,,,,,"$VNYMR,-083.450,+006.614,+000.077,+00.0255,+00.0553,+00.2655,+01.103,+00.008,-09.546,-00.000242,+00.000039,+00.000575*6E"
224,8.960056476000318,vn200,VNYMR,-83.448,6.613,0.078,0.0255,0.0533,0.2629,1.097,0.006,-9.525,0.001148,0.001155,0.000967,,,,,,,,,,"$VNYMR,-083.448,+006.613,+000.078,+00.0255,+00.0533,+00.2629,+01.097,+00.006,-09.525,+00.001148,+00.001155,+00.000967*6E"
225,9.000056397000662,vn200,VNYMR,-83.45,6.613,0.079,0.0257,0.0546,0.2653,1.11,-0.032,-9.574,-0.00033,-0.001318,-0.000926,,,,,,,,,,"$VNYMR,-083.450,+006.613,+000.079,+00.0257,+00.0546,+00.2653,+01.110,-00.032,-09.574,-00.000330,-00.001318,-00.000926*64"
226,9.04005792800126,vn200,VNYMR,-83.45,6.614,0.079,0.026,0.0533,0.2629,1.129,-0.012,-9.542,0.00152,-0.000524,0.00087,,,,,,,,,,"$VNYMR,-083.450,+006.614,+000.079,+00.0260,+00.0533,+00.2629,+01.129,-00.012,-09.542,+00.001520,-00.000524,+00.000870*69"
227,9.080057349001436,vn200,VNYMR,-83.451,6.614,0.08,0.0255,0.0536,0.2636,1.106,-0.015,-9.53,-0.000372,-0.000705,-0.000536,,,,,,,,,,"$VNYMR,-083.451,+006.614,+000.080,+00.0255,+00.0536,+00.2636,+01.106,-00.015,-09.530,-00.000372,-00.000705,-00.000536*62"
228,9.120056639001632,vn200,VNYMR,-83.451,6.613,0.079,0.0255,0.055,0.2655,1.111,-0.024,-9.528,-0.000324,-0.001345,2.3e-05,,,,,,,,,,"$VNYMR,-083.451,+006.613,+000.079,+00.0255,+00.0550,+00.2655,+01.111,-00.024,-09.528,-00.000324,-00.001345,+00.000023*6E"
229,9.160056671000348,vn200,VNYMR,-83.45,6.614,0.08,0.0264,0.0521,0.265,1.098,-0.017,-9.544,0.001294,-0.001468,0.000924,,,,,,,,,,"$VNYMR,-083.450,+006.614,+000.080,+00.0264,+00.0521,+00.2650,+01.098,-00.017,-09.544,+00.001294,-00.001468,+00.000924*6E"
230,9.200059684000735,vn200,VNYMR,-83.449,6.613,0.079,0.0255,0.0533,0.2653,1.101,0.012,-9.531,-0.000698,0.000123,-0.00096,,,,,,,,,,"$VNYMR,-083.449,+006.613,+000.079,+00.0255,+00.0533,+00.2653,+01.101,+00.012,-09.531,-00.000698,+00.000123,-00.000960*61"
231,9.240057549000994,vn200,VNYMR,-83.45,6.614,0.078,0.0251,0.0545,0.2631,1.112,0.006,-9.552,0.000316,-0.000614,0.000605,,,,,,,,,,"$VNYMR,-083.450,+006.614,+000.078,+00.0251,+00.0545,+00.2631,+01.112,+00.006,-09.552,+00.000316,-00.000614,+00.000605*66"
232,9.28005589500026,vn200,VNYMR,-83.451,6.615,0.076,0.0253,0.0541,0.2619,1.114,-0.006,-9.557,7.2e-05,0.000507,-0.00017,,,,,,,,,,"$VNYMR,-083.451,+006.615,+000.076,+00.0253,+00.0541,+00.2619,+01.114,-00.006,-09.557,+00.000072,+00.000507,-00.000170*64"
233,9.320056538001154,vn200,VNYMR,-83.453,6.615,0.076,0.026,0.0546,0.2655,1.088,-0.033,-9.529,0.000326,-0.000666,0.000552,,,,,,,,,,"$VNYMR,-083.453,+006.615,+000.076,+00.0260,+00.0546,+00.2655,+01.088,-00.033,-09.529,+00.000326,-00.000666,+00.000552*60"
234,9.36005679200025,vn200,VNYMR,-83.453,6.615,0.075,0.0258,0.0553,0.2655,1.083,-0.012,-9.542,-0.000184,0.000254,0.0005,,,,,,,,,,"$VNYMR,-083.453,+006.615,+000.075,+00.0258,+00.0553,+00.2655,+01.083,-00.012,-09.542,-00.000184,+00.000254,+00.000500*61"
235,9.400056360000235,vn200,VNYMR,-83.453,6.615,0.075,0.0265,0.0546,0.2626,1.108,-0.017,-9.542,-0.000119,-0.001556,-0.000833,,,,,,,,,,"$VNYMR,-083.453,+006.615,+000.075,+00.0265,+00.0546,+00.2626,+01.108,-00.017,-09.542,-00.000119,-00.001556,-00.000833*65"
236,9.440055484999903,vn200,VNYMR,-83.454,6.615,0.075,0.0262,0.0541,0.2655,1.094,0.016,-9.55,-8.4e-05,-0.000519,0.000499,,,,,,,,,,"$VNYMR,-083.454,+006.615,+000.075,+00.0262,+00.0541,+00.2655,+01.094,+00.016,-09.550,-00.000084,-00.000519,+00.000499*63"
237,9.480058405000818,vn200,VNYMR,-83.454,6.614,0.075,0.0246,0.0541,0.2638,1.105,-0.032,-9.559,-0.000788,-0.000248,0.000319,,,,,,,,,,"$VNYMR,-083.454,+006.614,+000.075,+00.0246,+00.0541,+00.2638,+01.105,-00.032,-09.559,-00.000788,-00.000248,+00.000319*68"
238,9.520057233001353,vn200,VNYMR,-83.454,6.615,0.073,0.0255,0.0546,0.2638,1.125,0.006,-9.513,-0.001075,0.001101,-0.000524,,,,,,,,,,"$VNYMR,-083.454,+006.615,+000.073,+00.0255,+00.0546,+00.2638,+01.125,+00.006,-09.513,-00.001075,+00.001101,-00.000524*64"
239,9.560057450000386,vn200,VNYMR,-83.456,6.614,0.073,0.0265,0.0548,0.2624,1.114,-0.018,-9.525,-0.000571,-0.001133,-0.000276,,,,,,,,,,"$VNYMR,-083.456,+006.614,+000.073,+00.0265,+00.0548,+00.2624,+01.114,-00.018,-09.525,-00.000571,-00.001133,-00.000276*6E"
240,9.60005748200092,vn200,VNYMR,-83.458,6.612,0.073,0.026,0.0536,0.2641,1.103,-0.02,-9.515,0.001316,0.000102,-0.00077,,,,,,,,,,"$VNYMR,-083.458,+006.612,+000.073,+00.0260,+00.0536,+00.2641,+01.103,-00.020,-09.515,+00.001316,+00.000102,-00.000770*61"
241,9.640057328000694,vn200,VNYMR,-83.458,6.614,0.075,0.026,0.0541,0.2634,1.109,-0.009,-9.54,-0.000615,-0.000579,-0.000983,,,,,,,,,,"$VNYMR,-083.458,+006.614,+000.075,+00.0260,+00.0541,+00.2634,+01.109,-00.009,-09.540,-00.000615,-00.000579,-00.000983*6F"
242,9.680058637000911,vn200,VNYMR,-83.459,6.614,0.073,0.0257,0.0546,0.265,1.115,-0.016,-9.533,-0.000129,-0.00064,-0.000106,,,,,,,,,,"$VNYMR,-083.459,+006.614,+000.073,+00.0257,+00.0546,+00.2650,+01.115,-00.016,-09.533,-00.000129,-00.000640,-00.000106*6A"
243,9.72005711300153,vn200,VNYMR,-83.458,6.615,0.072,0.0264,0.0529,0.2641,1.088,-0.016,-9.542,2.4e-05,0.000326,-0.000299,,,,,,,,,,"$VNYMR,-083.458,+006.615,+000.072,+00.0264,+00.0529,+00.2641,+01.088,-00.016,-09.542,+00.000024,+00.000326,-00.000299*6D"
244,9.760056256000098,vn200,VNYMR,-83.457,6.616,0.073,0.025,0.0538,0.2646,1.116,-0.027,-9.514,-4.8e-05,0.000502,0.000545,,,,,,,,,,"$VNYMR,-083.457,+006.616,+000.073,+00.0250,+00.0538,+00.2646,+01.116,-00.027,-09.514,-00.000048,+00.000502,+00.000545*6B"
245,9.800056732001394,vn200,VNYMR,-83.458,6.617,0.075,0.0251,0.0545,0.2634,1.107,-0.013,-9.546,-3e-06,-0.000366,8e-06,,,,,,,,,,"$VNYMR,-083.458,+006.617,+000.075,+00.0251,+00.0545,+00.2634,+01.107,-00.013,-09.546,-00.000003,-00.000366,+00.000008*6C"
246,9.84005819000049,vn200,VNYMR,-83.457,6.618,0.074,0.0269,0.0551,0.2662,1.107,-0.007,-9.531,-0.000313,0.000492,0.000127,,,,,,,,,,"$VNYMR,-083.457,+006.618,+000.074,+00.0269,+00.0551,+00.2662,+01.107,-00.007,-09.531,-00.000313,+00.000492,+00.000127*61"
247,9.880057850999947,vn200,VNYMR,-83.458,6.618,0.075,0.0265,0.056,0.2645,1.106,-0.019,-9.537,0.001051,-0.001135,-0.000481,,,,,,,,,,"$VNYMR,-083.458,+006.618,+000.075,+00.0265,+00.0560,+00.2645,+01.106,-00.019,-09.537,+00.001051,-00.001135,-00.000481*6E"
248,9.920057309000185,vn200,VNYMR,-83.459,6.618,0.075,0.0253,0.0543,0.2636,1.107,0.004,-9.524,0.000248,-0.000377,-0.000811,,,,,,,,,,"$VNYMR,-083.459,+006.618,+000.075,+00.0253,+00.0543,+00.2636,+01.107,+00.004,-09.524,+00.000248,-00.000377,-00.000811*6D"
249,9.960056211000847,vn200,VNYMR,-83.459,6.619,0.075,0.026,0.0519,0.2615,1.111,-0.045,-9.543,8.5e-05,-7.7e-05,-0.001579,,,,,,,,,,"$VNYMR,-083.459,+006.619,+000.075,+00.0260,+00.0519,+00.2615,+01.111,-00.045,-09.543,+00.000085,-00.000077,-00.001579*65"
250,10.000056353001128,vn200,VNYMR,-83.458,6.62,0.075,0.0267,0.0541,0.2648,1.101,-0.016,-9.53,0.000642,0.000108,0.000539,,,,,,,,,,"$VNYMR,-083.458,+006.620,+000.075,+00.0267,+00.0541,+00.2648,+01.101,-00.016,-09.530,+00.000642,+00.000108,+00.000539*6E"
251,10.040058070000669,vn200,VNYMR,-83.459,6.62,0.075,0.025,0.0536,0.2631,1.092,-0.021,-9.535,9.7e-05,-0.000889,-0.00114,,,,,,,,,,"$VNYMR,-083.459,+006.620,+000.075,+00.0250,+00.0536,+00.2631,+01.092,-00.021,-09.535,+00.000097,-00.000889,-00.001140*6A"
252,10.080056194001372,vn200,VNYMR,-83.458,6.62,0.075,0.0262,0.056,0.2634,1.126,-0.004,-9.532,0.000196,-0.000425,0.000708,,,,,,,,,,"$VNYMR,-083.458,+006.620,+000.075,+00.0262,+00.0560,+00.2634,+01.126,-00.004,-09.532,+00.000196,-00.000425,+00.000708*65"
253,10.120056837000448,vn200,VNYMR,-83.457,6.62,0.075,0.0258,0.0543,0.2622,1.113,-0.013,-9.575,-0.000801,-0.000354,-0.000717,,,,,,,,,,"$VNYMR,-083.457,+006.620,+000.075,+00.0258,+00.0543,+00.2622,+01.113,-00.013,-09.575,-00.000801,-00.000354,-00.000717*6E"
254,10.160058942999967,vn200,VNYMR,-83.456,6.62,0.074,0.0267,0.0533,0.2629,1.093,-0.016,-9.54,0.000148,0.000131,0.000605,,,,,,,,,,"$VNYMR,-083.456,+006.620,+000.074,+00.0267,+00.0533,+00.2629,+01.093,-00.016,-09.540,+00.000148,+00.000131,+00.000605*65"
255,10.20006110400027,vn200,VNYMR,-83.457,6.62,0.074,0.0262,0.0538,0.2622,1.127,-0.012,-9.535,-0.000655,0.000114,-0.000326,,,,,,,,,,"$VNYMR,-083.457,+006.620,+000.074,+00.0262,+00.0538,+00.2622,+01.127,-00.012,-09.535,-00.000655,+00.000114,-00.000326*61"
256,10.240058006000254,vn200,VNYMR,-83.457,6.621,0.074,0.026,0.0555,0.2648,1.108,0.004,-9.538,0.000468,0.000345,0.000229,,,,,,,,,,"$VNYMR,-083.457,+006.621,+000.074,+00.0260,+00.0555,+00.2648,+01.108,+00.004,-09.538,+00.000468,+00.000345,+00.000229*60"
257,10.280056815001444,vn200,VNYMR,-83.459,6.622,0.073,0.0258,0.0553,0.2626,1.125,-0.012,-9.577,-0.000405,-0.000187,0.000363,,,,,,,,,,"$VNYMR,-083.459,+006.622,+000.073,+00.0258,+00.0553,+00.2626,+01.125,-00.012,-09.577,-00.000405,-00.000187,+00.000363*62"
258,10.320056106000266,vn200,VNYMR,-83.458,6.622,0.073,0.0253,0.0543,0.2643,1.106,0.001,-9.563,7.2e-05,0.000736,-3e-06,,,,,,,,,,"$VNYMR,-083.458,+006.622,+000.073,+00.0253,+00.0543,+00.2643,+01.106,+00.001,-09.563,+00.000072,+00.000736,-00.000003*61"
259,10.360056101000737,vn200,VNYMR,-83.458,6.622,0.072,0.0267,0.0531,0.2636,1.101,-0.018,-9.529,-0.000191,0.001774,-0.000188,,,,,,,,,,"$VNYMR,-083.458,+006.622,+000.072,+00.0267,+00.0531,+00.2636,+01.101,-00.018,-09.529,-00.000191,+00.001774,-00.000188*68"
260,10.400058262001039,vn200,VNYMR,-83.459,6.62,0.075,0.0257,0.0536,0.2636,1.103,-0.02,-9.534,0.000364,-0.000436,-0.000293,,,,,,,,,,"$VNYMR,-083.459,+006.620,+000.075,+00.0257,+00.0536,+00.2636,+01.103,-00.020,-09.534,+00.000364,-00.000436,-00.000293*68"
261,10.440058349000537,vn200,VNYMR,-83.459,6.62,0.075,0.0264,0.0531,0.2629,1.109,-0.021,-9.515,0.000649,0.000495,4e-05,,,,,,,,,,"$VNYMR,-083.459,+006.620,+000.075,+00.0264,+00.0531,+00.2629,+01.109,-00.021,-09.515,+00.000649,+00.000495,+00.000040*66"
262,10.4800582150001,vn200,VNYMR,-83.461,6.62,0.074,0.0264,0.0541,0.2653,1.109,-0.008,-9.533,-0.000167,0.001149,0.000179,,,,,,,,,,"$VNYMR,-083.461,+006.620,+000.074,+00.0264,+00.0541,+00.2653,+01.109,-00.008,-09.533,-00.000167,+00.001149,+00.000179*6A"
263,10.520058635000169,vn200,VNYMR,-83.46,6.621,0.074,0.026,0.0558,0.2631,1.113,-0.012,-9.547,0.00062,-0.000113,-0.000132,,,,,,,,,,"$VNYMR,-083.460,+006.621,+000.074,+00.0260,+00.0558,+00.2631,+01.113,-00.012,-09.547,+00.000620,-00.000113,-00.000132*62"
264,10.560058574001232,vn200,VNYMR,-83.46,6.62,0.073,0.0265,0.0541,0.2643,1.106,-0.014,-9.525,-0.000147,-0.001023,0.00065,,,,,,,,,,"$VNYMR,-083.460,+006.620,+000.073,+00.0265,+00.0541,+00.2643,+01.106,-00.014,-09.525,-00.000147,-00.001023,+00.000650*6C"
265,10.600057624000328,vn200,VNYMR,-83.46,6.619,0.073,0.026,0.0548,0.2634,1.09,-0.021,-9.543,0.000322,0.000481,0.000803,,,,,,,,,,"$VNYMR,-083.460,+006.619,+000.073,+00.0260,+00.0548,+00.2634,+01.090,-00.021,-09.543,+00.000322,+00.000481,+00.000803*66"
266,10.640057582000736,vn200,VNYMR,-83.459,6.62,0.073,0.0253,0.0543,0.2643,1.095,-0.004,-9.551,-0.000681,0.000284,-3.1e-05,,,,,,,,,,"$VNYMR,-083.459,+006.620,+000.073,+00.0253,+00.0543,+00.2643,+01.095,-00.004,-09.551,-00.000681,+00.000284,-00.000031*6A"
267,10.680057780000425,vn200,VNYMR,-83.459,6.62,0.072,0.0255,0.0543,0.2631,1.1,-0.006,-9.529,-0.000229,4.4e-05,-0.000446,,,,,,,,,,"$VNYMR,-083.459,+006.620,+000.072,+00.0255,+00.0543,+00.2631,+01.100,-00.006,-09.529,-00.000229,+00.000044,-00.000446*64"
268,10.720057997001277,vn200,VNYMR,-83.46,6.619,0.072,0.0262,0.0541,0.2638,1.094,-0.006,-9.538,0.001067,0.000253,0.000267,,,,,,,,,,"$VNYMR,-083.460,+006.619,+000.072,+00.0262,+00.0541,+00.2638,+01.094,-00.006,-09.538,+00.001067,+00.000253,+00.000267*6F"
269,10.760057825000331,vn200,VNYMR,-83.46,6.618,0.072,0.0253,0.0548,0.2624,1.107,-0.024,-9.532,-0.000428,0.00035,-0.000315,,,,,,,,,,"$VNYMR,-083.460,+006.618,+000.072,+00.0253,+00.0548,+00.2624,+01.107,-00.024,-09.532,-00.000428,+00.000350,-00.000315*61"
270,10.800057449001542,vn200,VNYMR,-83.461,6.619,0.072,0.0271,0.0531,0.2629,1.124,0.005,-9.508,7e-06,-0.000264,-0.000189,,,,,,,,,,"$VNYMR,-083.461,+006.619,+000.072,+00.0271,+00.0531,+00.2629,+01.124,+00.005,-09.508,+00.000007,-00.000264,-00.000189*67"
271,10.840056869999898,vn200,VNYMR,-83.46,6.619,0.071,0.0257,0.0533,0.2631,1.099,-0.009,-9.52,0.00012,-0.000438,0.000147,,,,,,,,,,"$VNYMR,-083.460,+006.619,+000.071,+00.0257,+00.0533,+00.2631,+01.099,-00.009,-09.520,+00.000120,-00.000438,+00.000147*62"
272,10.880057661001047,vn200,VNYMR,-83.46,6.62,0.07,0.0246,0.0536,0.2643,1.113,-0.033,-9.541,-0.00042,8e-06,1.9e-05,,,,,,,,,,"$VNYMR,-083.460,+006.620,+000.070,+00.0246,+00.0536,+00.2643,+01.113,-00.033,-09.541,-00.000420,+00.000008,+00.000019*6C"
273,10.920057582001391,vn200,VNYMR,-83.46,6.62,0.07,0.0257,0.0546,0.2655,1.104,-0.009,-9.543,-0.000128,-0.000259,-0.000585,,,,,,,,,,"$VNYMR,-083.460,+006.620,+000.070,+00.0257,+00.0546,+00.2655,+01.104,-00.009,-09.543,-00.000128,-00.000259,-00.000585*6A"
274,10.960056261001228,vn200,VNYMR,-83.459,6.62,0.07,0.026,0.0543,0.2646,1.121,-0.014,-9.545,-0.000661,0.00039,0.000428,,,,,,,,,,"$VNYMR,-083.459,+006.620,+000.070,+00.0260,+00.0543,+00.2646,+01.121,-00.014,-09.545,-00.000661,+00.000390,+00.000428*66"
275,11.000054497000747,vn200,VNYMR,-83.46,6.619,0.07,0.0253,0.0541,0.2631,1.108,-0.009,-9.56,0.000826,-0.00034,0.00062,,,,,,,,,,"$VNYMR,-083.460,+006.619,+000.070,+00.0253,+00.0541,+00.2631,+01.108,-00.009,-09.560,+00.000826,-00.000340,+00.000620*6E"
276,11.040056028001345,vn200,VNYMR,-83.459,6.619,0.071,0.0262,0.0531,0.2634,1.124,-0.018,-9.547,6e-05,-0.000451,0.001174,,,,,,,,,,"$VNYMR,-083.459,+006.619,+000.071,+00.0262,+00.0531,+00.2634,+01.124,-00.018,-09.547,+00.000060,-00.000451,+00.001174*64"
277,11.080057208000653,vn200,VNYMR,-83.46,6.618,0.07,0.0269,0.0546,0.2641,1.095,-0.017,-9.498,0.000322,0.00015,0.000351,,,,,,,,,,"$VNYMR,-083.460,+006.618,+000.070,+00.0269,+00.0546,+00.2641,+01.095,-00.017,-09.498,+00.000322,+00.000150,+00.000351*63"
278,11.120055536001018,vn200,VNYMR,-83.459,6.618,0.071,0.0262,0.0526,0.2655,1.125,-0.006,-9.529,-0.000488,0.00059,0.000788,,,,,,,,,,"$VNYMR,-083.459,+006.618,+000.071,+00.0262,+00.0526,+00.2655,+01.125,-00.006,-09.529,-00.000488,+00.000590,+00.000788*68"
279,11.160058512001342,vn200,VNYMR,-83.46,6.617,0.07,0.0255,0.0546,0.2636,1.118,0.017,-9.527,0.000363,4.3e-05,-0.000207,,,,,,,,,,"$VNYMR,-083.460,+006.617,+000.070,+00.0255,+00.0546,+00.2636,+01.118,+00.017,-09.527,+00.000363,+00.000043,-00.000207*66"
280,11.20006030300101,vn200,VNYMR,-83.462,6.618,0.07,0.0267,0.0548,0.2629,1.121,-0.016,-9.531,-0.000156,4.5e-05,-0.000834,,,,,,,,,,"$VNYMR,-083.462,+006.618,+000.070,+00.0267,+00.0548,+00.2629,+01.121,-00.016,-09.531,-00.000156,+00.000045,-00.000834*6E"
281,11.240057891000106,vn200,VNYMR,-83.463,6.618,0.07,0.0248,0.0548,0.2638,1.094,-0.008,-9.52,-3.5e-05,0.000166,0.000677,,,,,,,,,,"$VNYMR,-083.463,+006.618,+000.070,+00.0248,+00.0548,+00.2638,+01.094,-00.008,-09.520,-00.000035,+00.000166,+00.000677*69"
282,11.2800573479999,vn200,VNYMR,-83.463,6.618,0.07,0.0262,0.0546,0.2638,1.103,0.008,-9.547,-0.000572,8.6e-05,-0.000779,,,,,,,,,,"$VNYMR,-083.463,+006.618,+000.070,+00.0262,+00.0546,+00.2638,+01.103,+00.008,-09.547,-00.000572,+00.000086,-00.000779*67"
283,11.320057009001175,vn200,VNYMR,-83.463,6.618,0.071,0.0255,0.055,0.2653,1.107,-0.009,-9.575,-0.00021,0.000496,0.00084,,,,,,,,,,"$VNYMR,-083.463,+006.618,+000.071,+00.0255,+00.0550,+00.2653,+01.107,-00.009,-09.575,-00.000210,+00.000496,+00.000840*6F"
284,11.360056060000716,vn200,VNYMR,-83.464,6.618,0.071,0.0251,0.0545,0.2631,1.1,-0.002,-9.55,0.000566,-1.1e-05,-3.5e-05,,,,,,,,,,"$VNYMR,-083.464,+006.618,+000.071,+00.0251,+00.0545,+00.2631,+01.100,-00.002,-09.550,+00.000566,-00.000011,-00.000035*66"
285,11.400056184000277,vn200,VNYMR,-83.467,6.618,0.072,0.0262,0.0536,0.2634,1.078,-0.02,-9.529,0.000135,0.00059,-0.000417,,,,,,,,,,"$VNYMR,-083.467,+006.618,+000.072,+00.0262,+00.0536,+00.2634,+01.078,-00.020,-09.529,+00.000135,+00.000590,-00.000417*6B"
286,11.440055512000981,vn200,VNYMR,-83.466,6.618,0.071,0.0267,0.055,0.2629,1.094,-0.002,-9.554,-0.000648,-0.001766,0.000327,,,,,,,,,,"$VNYMR,-083.466,+006.618,+000.071,+00.0267,+00.0550,+00.2629,+01.094,-00.002,-09.554,-00.000648,-00.001766,+00.000327*6D"
287,11.48005558100158,vn200,VNYMR,-83.466,6.616,0.071,0.0265,0.0541,0.2634,1.108,0.008,-9.534,-0.000341,-6.3e-05,-0.000286,,,,,,,,,,"$VNYMR,-083.466,+006.616,+000.071,+00.0265,+00.0541,+00.2634,+01.108,+00.008,-09.534,-00.000341,-00.000063,-00.000286*60"
288,11.520056242001374,vn200,VNYMR,-83.467,6.617,0.069,0.025,0.0538,0.2641,1.106,-0.023,-9.526,-0.000778,0.000164,0.001341,,,,,,,,,,"$VNYMR,-083.467,+006.617,+000.069,+00.0250,+00.0538,+00.2641,+01.106,-00.023,-09.526,-00.000778,+00.000164,+00.001341*62"
289,11.560056199999963,vn200,VNYMR,-83.467,6.617,0.07,0.0258,0.0541,0.2631,1.086,-0.011,-9.543,0.000413,0.000161,0.000604,,,,,,,,,,"$VNYMR,-083.467,+006.617,+000.070,+00.0258,+00.0541,+00.2631,+01.086,-00.011,-09.543,+00.000413,+00.000161,+00.000604*68"
290,11.600055880000582,vn200,VNYMR,-83.468,6.615,0.07,0.0265,0.0548,0.2624,1.102,-0.03,-9.572,0.000116,-0.000828,0.00136,,,,,,,,,,"$VNYMR,-083.468,+006.615,+000.070,+00.0265,+00.0548,+00.2624,+01.102,-00.030,-09.572,+00.000116,-00.000828,+00.001360*6E"
291,11.640055708001455,vn200,VNYMR,-83.468,6.614,0.07,0.0253,0.0553,0.2641,1.111,0.027,-9.544,-0.000234,0.000494,-0.000588,,,,,,,,,,"$VNYMR,-083.468,+006.614,+000.070,+00.0253,+00.0553,+00.2641,+01.111,+00.027,-09.544,-00.000234,+00.000494,-00.000588*6B"
292,11.680056202001651,vn200,VNYMR,-83.466,6.613,0.069,0.0269,0.0534,0.2646,1.072,-0.038,-9.529,-0.000397,-0.000328,0.000952,,,,,,,,,,"$VNYMR,-083.466,+006.613,+000.069,+00.0269,+00.0534,+00.2646,+01.072,-00.038,-09.529,-00.000397,-00.000328,+00.000952*61"
293,11.72005625300153,vn200,VNYMR,-83.466,6.614,0.07,0.0269,0.0543,0.266,1.095,-0.035,-9.523,-0.000495,0.001299,-0.000246,,,,,,,,,,"$VNYMR,-083.466,+006.614,+000.070,+00.0269,+00.0543,+00.2660,+01.095,-00.035,-09.523,-00.000495,+00.001299,-00.000246*65"
294,11.760058062000098,vn200,VNYMR,-83.465,6.613,0.071,0.0251,0.0538,0.2614,1.11,0.009,-9.513,0.000177,-0.000211,0.000247,,,,,,,,,,"$VNYMR,-083.465,+006.613,+000.071,+00.0251,+00.0538,+00.2614,+01.110,+00.009,-09.513,+00.000177,-00.000211,+00.000247*6D"
295,11.800057224001648,vn200,VNYMR,-83.466,6.615,0.071,0.0255,0.0533,0.2622,1.123,-0.014,-9.549,0.000117,2.9e-05,-0.000235,,,,,,,,,,"$VNYMR,-083.466,+006.615,+000.071,+00.0255,+00.0533,+00.2622,+01.123,-00.014,-09.549,+00.000117,+00.000029,-00.000235*6D"
296,11.840055515000131,vn200,VNYMR,-83.465,6.614,0.07,0.0262,0.0531,0.2634,1.099,-0.001,-9.543,-4.4e-05,0.00039,-0.000174,,,,,,,,,,"$VNYMR,-083.465,+006.614,+000.070,+00.0262,+00.0531,+00.2634,+01.099,-00.001,-09.543,-00.000044,+00.000390,-00.000174*67"
297,11.88005641700147,vn200,VNYMR,-83.465,6.614,0.071,0.0258,0.0538,0.2629,1.105,-0.006,-9.525,0.000845,-0.000187,3.1e-05,,,,,,,,,,"$VNYMR,-083.465,+006.614,+000.071,+00.0258,+00.0538,+00.2629,+01.105,-00.006,-09.525,+00.000845,-00.000187,+00.000031*62"
298,11.92005644800156,vn200,VNYMR,-83.466,6.616,0.072,0.0255,0.0546,0.2629,1.095,-0.001,-9.578,0.000795,0.000574,0.000995,,,,,,,,,,"$VNYMR,-083.466,+006.616,+000.072,+00.0255,+00.0546,+00.2629,+01.095,-00.001,-09.578,+00.000795,+00.000574,+00.000995*68"
299,11.960055795001608,vn200,VNYMR,-83.467,6.616,0.073,0.026,0.0546,0.2619,1.127,-0.026,-9.53,0.000454,0.000288,-0.000998,,,,,,,,,,"$VNYMR,-083.467,+006.616,+000.073,+00.0260,+00.0546,+00.2619,+01.127,-00.026,-09.530,+00.000454,+00.000288,-00.000998*6D"
300,12.000056382001276,vn200,VNYMR,-83.467,6.615,0.072,0.0262,0.0529,0.2648,1.1,-0.002,-9.524,-0.000531,9.1e-05,-0.000581,,,,,,,,,,"$VNYMR,-083.467,+006.615,+000.072,+00.0262,+00.0529,+00.2648,+01.100,-00.002,-09.524,-00.000531,+00.000091,-00.000581*6C"
301,12.040057617999992,vn200,VNYMR,-83.467,6.616,0.072,0.0258,0.0548,0.2622,1.117,-0.011,-9.513,0.000267,0.001461,0.001146,,,,,,,,,,"$VNYMR,-083.467,+006.616,+000.072,+00.0258,+00.0548,+00.2622,+01.117,-00.011,-09.513,+00.000267,+00.001461,+00.001146*6D"
302,12.080056668000907,vn200,VNYMR,-83.465,6.617,0.075,0.0257,0.0531,0.265,1.103,-0.022,-9.511,0.000965,-0.000202,-0.000494,,,,,,,,,,"$VNYMR,-083.465,+006.617,+000.075,+00.0257,+00.0531,+00.2650,+01.103,-00.022,-09.511,+00.000965,-00.000202,-00.000494*6A"
303,12.120055385001251,vn200,VNYMR,-83.465,6.616,0.075,0.0257,0.0536,0.2638,1.106,-0.031,-9.556,-0.000508,-0.000661,-0.000294,,,,,,,,,,"$VNYMR,-083.465,+006.616,+000.075,+00.0257,+00.0536,+00.2638,+01.106,-00.031,-09.556,-00.000508,-00.000661,-00.000294*60"
304,12.160056472001088,vn200,VNYMR,-83.464,6.615,0.074,0.0255,0.0538,0.2634,1.107,-0.013,-9.539,9.2e-05,-0.000448,0.000437,,,,,,,,,,"$VNYMR,-083.464,+006.615,+000.074,+00.0255,+00.0538,+00.2634,+01.107,-00.013,-09.539,+00.000092,-00.000448,+00.000437*6B"
305,12.200060911000037,vn200,VNYMR,-83.465,6.615,0.074,0.0262,0.0533,0.2636,1.11,-0.025,-9.526,-0.000209,-2.5e-05,-0.000216,,,,,,,,,,"$VNYMR,-083.465,+006.615,+000.074,+00.0262,+00.0533,+00.2636,+01.110,-00.025,-09.526,-00.000209,-00.000025,-00.000216*60"
306,12.240058202,vn200,VNYMR,-83.465,6.615,0.074,0.0262,0.0548,0.2643,1.118,0.0,-9.537,-0.000326,0.000155,-0.000724,,,,,,,,,,"$VNYMR,-083.465,+006.615,+000.074,+00.0262,+00.0548,+00.2643,+01.118,+00.000,-09.537,-00.000326,+00.000155,-00.000724*6F"
307,12.28005604900136,vn200,VNYMR,-83.465,6.615,0.073,0.025,0.0531,0.265,1.101,0.001,-9.541,-0.000125,0.000396,-0.000438,,,,,,,,,,"$VNYMR,-083.465,+006.615,+000.073,+00.0250,+00.0531,+00.2650,+01.101,+00.001,-09.541,-00.000125,+00.000396,-00.000438*6F"
308,12.32005561799997,vn200,VNYMR,-83.464,6.617,0.073,0.0267,0.0546,0.2636,1.112,-0.038,-9.541,0.000115,0.000676,-0.000958,,,,,,,,,,"$VNYMR,-083.464,+006.617,+000.073,+00.0267,+00.0546,+00.2636,+01.112,-00.038,-09.541,+00.000115,+00.000676,-00.000958*63"
309,12.360055761000694,vn200,VNYMR,-83.463,6.617,0.072,0.0265,0.0543,0.2638,1.098,-0.016,-9.573,-0.000919,-0.00021,-0.000945,,,,,,,,,,"$VNYMR,-083.463,+006.617,+000.072,+00.0265,+00.0543,+00.2638,+01.098,-00.016,-09.573,-00.000919,-00.000210,-00.000945*6E"
310,12.400056274000235,vn200,VNYMR,-83.463,6.617,0.072,0.0253,0.0545,0.2629,1.102,-0.033,-9.514,0.000906,0.001019,0.001713,,,,,,,,,,"$VNYMR,-083.463,+006.617,+000.072,+00.0253,+00.0545,+00.2629,+01.102,-00.033,-09.514,+00.000906,+00.001019,+00.001713*67"
311,12.440055639001002,vn200,VNYMR,-83.464,6.616,0.072,0.026,0.0538,0.2636,1.11,-0.032,-9.555,-3.5e-05,0.000146,0.000731,,,,,,,,,,"$VNYMR,-083.464,+006.616,+000.072,+00.0260,+00.0538,+00.2636,+01.110,-00.032,-09.555,-00.000035,+00.000146,+00.000731*66"
312,12.480055634001474,vn200,VNYMR,-83.465,6.615,0.072,0.0264,0.0531,0.2627,1.106,-0.027,-9.54,0.000404,0.000296,0.000735,,,,,,,,,,"$VNYMR,-083.465,+006.615,+000.072,+00.0264,+00.0531,+00.2627,+01.106,-00.027,-09.540,+00.000404,+00.000296,+00.000735*64"
313,12.520056277000549,vn200,VNYMR,-83.465,6.615,0.073,0.0253,0.0555,0.2624,1.111,-0.018,-9.584,0.000843,-0.000171,-0.001314,,,,,,,,,,"$VNYMR,-083.465,+006.615,+000.073,+00.0253,+00.0555,+00.2624,+01.111,-00.018,-09.584,+00.000843,-00.000171,-00.001314*61"
314,12.560056234000513,vn200,VNYMR,-83.463,6.615,0.074,0.0255,0.0543,0.2646,1.102,-0.018,-9.541,0.000517,0.001706,0.000273,,,,,,,,,,"$VNYMR,-083.463,+006.615,+000.074,+00.0255,+00.0543,+00.2646,+01.102,-00.018,-09.541,+00.000517,+00.001706,+00.000273*64"
315,12.600056155000857,vn200,VNYMR,-83.462,6.617,0.074,0.026,0.0536,0.2626,1.102,-0.027,-9.537,0.000188,-0.000517,0.000305,,,,,,,,,,"$VNYMR,-083.462,+006.617,+000.074,+00.0260,+00.0536,+00.2626,+01.102,-00.027,-09.537,+00.000188,-00.000517,+00.000305*6F"
316,12.640055556999869,vn200,VNYMR,-83.461,6.617,0.075,0.026,0.0536,0.2643,1.112,0.0,-9.55,0.000976,0.000267,0.000412,,,,,,,,,,"$VNYMR,-083.461,+006.617,+000.075,+00.0260,+00.0536,+00.2643,+01.112,+00.000,-09.550,+00.000976,+00.000267,+00.000412*63"
317,12.680056182000044,vn200,VNYMR,-83.461,6.617,0.076,0.0262,0.0529,0.2648,1.109,-0.013,-9.563,0.000118,6.9e-05,0.000557,,,,,,,,,,"$VNYMR,-083.461,+006.617,+000.076,+00.0262,+00.0529,+00.2648,+01.109,-00.013,-09.563,+00.000118,+00.000069,+00.000557*65"
318,12.720056288000706,vn200,VNYMR,-83.461,6.619,0.074,0.0255,0.0541,0.2631,1.133,0.005,-9.513,-0.000242,0.000257,0.000899,,,,,,,,,,"$VNYMR,-083.461,+006.619,+000.074,+00.0255,+00.0541,+00.2631,+01.133,+00.005,-09.513,-00.000242,+00.000257,+00.000899*68"
319,12.760055782000563,vn200,VNYMR,-83.46,6.621,0.075,0.0258,0.055,0.2626,1.092,-0.023,-9.537,-0.000448,0.000843,0.000742,,,,,,,,,,"$VNYMR,-083.460,+006.621,+000.075,+00.0258,+00.0550,+00.2626,+01.092,-00.023,-09.537,-00.000448,+00.000843,+00.000742*6C"
320,12.80005614700167,vn200,VNYMR,-83.46,6.621,0.074,0.0265,0.0548,0.2641,1.098,-0.015,-9.543,0.000941,-0.000649,-0.001283,,,,,,,,,,"$VNYMR,-083.460,+006.621,+000.074,+00.0265,+00.0548,+00.2641,+01.098,-00.015,-09.543,+00.000941,-00.000649,-00.001283*68"
321,12.840056105000258,vn200,VNYMR,-83.459,6.622,0.075,0.0258,0.0538,0.2626,1.111,-0.01,-9.507,-0.000429,0.001004,-6.1e-05,,,,,,,,,,"$VNYMR,-083.459,+006.622,+000.075,+00.0258,+00.0538,+00.2626,+01.111,-00.010,-09.507,-00.000429,+00.001004,-00.000061*6F"
322,12.880056341000454,vn200,VNYMR,-83.459,6.622,0.076,0.0258,0.055,0.2631,1.092,0.005,-9.539,0.000634,0.000469,-0.001186,,,,,,,,,,"$VNYMR,-083.459,+006.622,+000.076,+00.0258,+00.0550,+00.2631,+01.092,+00.005,-09.539,+00.000634,+00.000469,-00.001186*6E"
323,12.920056076000037,vn200,VNYMR,-83.459,6.621,0.077,0.0262,0.0541,0.2646,1.107,-0.012,-9.541,0.000197,0.000163,0.000259,,,,,,,,,,"$VNYMR,-083.459,+006.621,+000.077,+00.0262,+00.0541,+00.2646,+01.107,-00.012,-09.541,+00.000197,+00.000163,+00.000259*60"
324,12.960056108000572,vn200,VNYMR,-83.459,6.621,0.076,0.0262,0.0538,0.2629,1.115,-0.006,-9.534,-0.000821,-0.000113,0.000986,,,,,,,,,,"$VNYMR,-083.459,+006.621,+000.076,+00.0262,+00.0538,+00.2629,+01.115,-00.006,-09.534,-00.000821,-00.000113,+00.000986*68"
325,13.000056232000134,vn200,VNYMR,-83.46,6.622,0.076,0.026,0.0543,0.2648,1.115,-0.016,-9.533,-0.000156,-0.000475,5.6e-05,,,,,,,,,,"$VNYMR,-083.460,+006.622,+000.076,+00.0260,+00.0543,+00.2648,+01.115,-00.016,-09.533,-00.000156,-00.000475,+00.000056*66"
326,13.040057820000584,vn200,VNYMR,-83.46,6.621,0.076,0.0255,0.0536,0.2624,1.088,-0.017,-9.562,-0.000132,0.000722,0.000586,,,,,,,,,,"$VNYMR,-083.460,+006.621,+000.076,+00.0255,+00.0536,+00.2624,+01.088,-00.017,-09.562,-00.000132,+00.000722,+00.000586*66"
327,13.080055481001182,vn200,VNYMR,-83.46,6.621,0.076,0.026,0.0533,0.2629,1.118,-0.005,-9.514,-0.001259,-0.00018,0.000429,,,,,,,,,,"$VNYMR,-083.460,+006.621,+000.076,+00.0260,+00.0533,+00.2629,+01.118,-00.005,-09.514,-00.001259,-00.000180,+00.000429*61"
328,13.120056587000363,vn200,VNYMR,-83.461,6.622,0.074,0.026,0.0548,0.2626,1.11,-0.022,-9.524,-0.001353,0.000636,-0.000994,,,,,,,,,,"$VNYMR,-083.461,+006.622,+000.074,+00.0260,+00.0548,+00.2626,+01.110,-00.022,-09.524,-00.001353,+00.000636,-00.000994*66"
329,13.16005643400058,vn200,VNYMR,-83.461,6.622,0.073,0.026,0.0526,0.2648,1.101,-0.008,-9.51,6.1e-05,-0.000564,-0.000746,,,,,,,,,,"$VNYMR,-083.461,+006.622,+000.073,+00.0260,+00.0526,+00.2648,+01.101,-00.008,-09.510,+00.000061,-00.000564,-00.000746*68"
330,13.200062391000756,vn200,VNYMR,-83.461,6.624,0.075,0.0272,0.0541,0.2634,1.11,-0.015,-9.528,-1.8e-05,-0.000595,-0.000506,,,,,,,,,,"$VNYMR,-083.461,+006.624,+000.075,+00.0272,+00.0541,+00.2634,+01.110,-00.015,-09.528,-00.000018,-00.000595,-00.000506*66"
331,13.240058201001375,vn200,VNYMR,-83.461,6.624,0.075,0.0255,0.0541,0.2638,1.113,-0.018,-9.548,-0.000895,0.000313,0.000365,,,,,,,,,,"$VNYMR,-083.461,+006.624,+000.075,+00.0255,+00.0541,+00.2638,+01.113,-00.018,-09.548,-00.000895,+00.000313,+00.000365*61"
332,13.280055770001127,vn200,VNYMR,-83.461,6.623,0.076,0.027,0.0558,0.2624,1.111,0.002,-9.527,0.001111,0.000535,-4.6e-05,,,,,,,,,,"$VNYMR,-083.461,+006.623,+000.076,+00.0270,+00.0558,+00.2624,+01.111,+00.002,-09.527,+00.001111,+00.000535,-00.000046*65"
333,13.320056579001175,vn200,VNYMR,-83.461,6.623,0.075,0.0253,0.0536,0.2655,1.097,-0.015,-9.533,-0.00028,0.000658,-0.000483,,,,,,,,,,"$VNYMR,-083.461,+006.623,+000.075,+00.0253,+00.0536,+00.2655,+01.097,-00.015,-09.533,-00.000280,+00.000658,-00.000483*6A"
334,13.36005590700006,vn200,VNYMR,-83.46,6.622,0.077,0.0241,0.055,0.2641,1.088,-0.01,-9.541,0.001075,-0.001011,0.000778,,,,,,,,,,"$VNYMR,-083.460,+006.622,+000.077,+00.0241,+00.0550,+00.2641,+01.088,-00.010,-09.541,+00.001075,-00.001011,+00.000778*62"
335,13.400056236001546,vn200,VNYMR,-83.461,6.623,0.077,0.026,0.0536,0.2636,1.101,-0.007,-9.52,0.0004,-0.000725,0.000972,,,,,,,,,,"$VNYMR,-083.461,+006.623,+000.077,+00.0260,+00.0536,+00.2636,+01.101,-00.007,-09.520,+00.000400,-00.000725,+00.000972*62"
336,13.440056267001637,vn200,VNYMR,-83.46,6.623,0.078,0.0264,0.0531,0.2641,1.102,-0.009,-9.581,-0.000271,-0.000448,-9.3e-05,,,,,,,,,,"$VNYMR,-083.460,+006.623,+000.078,+00.0264,+00.0531,+00.2641,+01.102,-00.009,-09.581,-00.000271,-00.000448,-00.000093*67"
337,13.480056096001135,vn200,VNYMR,-83.46,6.622,0.078,0.0255,0.0546,0.2636,1.096,-0.025,-9.541,0.000621,-0.000663,0.000132,,,,,,,,,,"$VNYMR,-083.460,+006.622,+000.078,+00.0255,+00.0546,+00.2636,+01.096,-00.025,-09.541,+00.000621,-00.000663,+00.000132*6A"
338,13.520056294000824,vn200,VNYMR,-83.46,6.622,0.077,0.0257,0.0548,0.2657,1.104,-0.014,-9.526,-0.000222,-0.000328,0.000292,,,,,,,,,,"$VNYMR,-083.460,+006.622,+000.077,+00.0257,+00.0548,+00.2657,+01.104,-00.014,-09.526,-00.000222,-00.000328,+00.000292*65"
339,13.560056215001168,vn200,VNYMR,-83.461,6.622,0.077,0.0253,0.0546,0.2636,1.119,-0.019,-9.549,-0.000287,0.000432,-0.00088,,,,,,,,,,"$VNYMR,-083.461,+006.622,+000.077,+00.0253,+00.0546,+00.2636,+01.119,-00.019,-09.549,-00.000287,+00.000432,-00.000880*6B"
340,13.600056043000222,vn200,VNYMR,-83.462,6.622,0.078,0.026,0.0546,0.2631,1.109,-0.019,-9.53,0.001205,0.000534,-7.3e-05,,,,,,,,,,"$VNYMR,-083.462,+006.622,+000.078,+00.0260,+00.0546,+00.2631,+01.109,-00.019,-09.530,+00.001205,+00.000534,-00.000073*61"
341,13.640055501000461,vn200,VNYMR,-83.463,6.623,0.078,0.0257,0.0538,0.2641,1.121,-0.029,-9.526,-0.001149,0.000645,0.0012,,,,,,,,,,"$VNYMR,-083.463,+006.623,+000.078,+00.0257,+00.0538,+00.2641,+01.121,-00.029,-09.526,-00.001149,+00.000645,+00.001200*6C"
342,13.68005558799996,vn200,VNYMR,-83.464,6.624,0.078,0.0274,0.0543,0.2662,1.092,-0.026,-9.55,0.000749,0.001147,0.000482,,,,,,,,,,"$VNYMR,-083.464,+006.624,+000.078,+00.0274,+00.0543,+00.2662,+01.092,-00.026,-09.550,+00.000749,+00.001147,+00.000482*6F"
343,13.720055305000642,vn200,VNYMR,-83.464,6.624,0.079,0.026,0.0541,0.2646,1.113,-0.009,-9.558,0.000357,0.001029,-0.000144,,,,,,,,,,"$VNYMR,-083.464,+006.624,+000.079,+00.0260,+00.0541,+00.2646,+01.113,-00.009,-09.558,+00.000357,+00.001029,-00.000144*69"
344,13.760055689001092,vn200,VNYMR,-83.464,6.625,0.079,0.0267,0.0543,0.2622,1.108,-0.048,-9.542,0.000597,0.000316,-0.000342,,,,,,,,,,"$VNYMR,-083.464,+006.625,+000.079,+00.0267,+00.0543,+00.2622,+01.108,-00.048,-09.542,+00.000597,+00.000316,-00.000342*6B"
345,13.800055591000273,vn200,VNYMR,-83.465,6.627,0.079,0.0258,0.056,0.2617,1.11,0.004,-9.533,-6.8e-05,-0.00013,0.001654,,,,,,,,,,"$VNYMR,-083.465,+006.627,+000.079,+00.0258,+00.0560,+00.2617,+01.110,+00.004,-09.533,-00.000068,-00.000130,+00.001654*64"
346,13.840056345001358,vn200,VNYMR,-83.465,6.628,0.079,0.0246,0.0541,0.2638,1.099,0.008,-9.527,0.000194,0.000104,0.000237,,,,,,,,,,"$VNYMR,-083.465,+006.628,+000.079,+00.0246,+00.0541,+00.2638,+01.099,+00.008,-09.527,+00.000194,+00.000104,+00.000237*66"
347,13.880056395000793,vn200,VNYMR,-83.463,6.628,0.078,0.0253,0.0553,0.2629,1.104,-0.015,-9.561,0.000406,4.2e-05,0.001131,,,,,,,,,,"$VNYMR,-083.463,+006.628,+000.078,+00.0253,+00.0553,+00.2629,+01.104,-00.015,-09.561,+00.000406,+00.000042,+00.001131*62"
348,13.92005540900027,vn200,VNYMR,-83.462,6.628,0.078,0.026,0.056,0.2655,1.092,-0.004,-9.517,-0.000346,0.001564,-0.000748,,,,,,,,,,"$VNYMR,-083.462,+006.628,+000.078,+00.0260,+00.0560,+00.2655,+01.092,-00.004,-09.517,-00.000346,+00.001564,-00.000748*6D"
349,13.960056144000191,vn200,VNYMR,-83.461,6.628,0.077,0.0255,0.056,0.2653,1.094,-0.005,-9.509,-0.000623,-0.000632,-0.000315,,,,,,,,,,"$VNYMR,-083.461,+006.628,+000.077,+00.0255,+00.0560,+00.2653,+01.094,-00.005,-09.509,-00.000623,-00.000632,-00.000315*64"
350,14.00005547300134,vn200,VNYMR,-83.462,6.628,0.077,0.0258,0.0548,0.2634,1.105,-0.002,-9.556,-0.000945,-0.000167,0.001544,,,,,,,,,,"$VNYMR,-083.462,+006.628,+000.077,+00.0258,+00.0548,+00.2634,+01.105,-00.002,-09.556,-00.000945,-00.000167,+00.001544*68"
351,14.040056653000647,vn200,VNYMR,-83.461,6.629,0.078,0.0255,0.0546,0.2648,1.111,-0.025,-9.526,2e-05,0.000483,0.001118,,,,,,,,,,"$VNYMR,-083.461,+006.629,+000.078,+00.0255,+00.0546,+00.2648,+01.111,-00.025,-09.526,+00.000020,+00.000483,+00.001118*62"
352,14.080055647000336,vn200,VNYMR,-83.461,6.629,0.078,0.025,0.0536,0.2636,1.093,-0.019,-9.543,-0.000427,-0.000865,9.7e-05,,,,,,,,,,"$VNYMR,-083.461,+006.629,+000.078,+00.0250,+00.0536,+00.2636,+01.093,-00.019,-09.543,-00.000427,-00.000865,+00.000097*6E"
353,14.120056568001019,vn200,VNYMR,-83.46,6.629,0.077,0.0257,0.0538,0.2643,1.095,-0.038,-9.514,-0.000305,-0.000206,-0.000244,,,,,,,,,,"$VNYMR,-083.460,+006.629,+000.077,+00.0257,+00.0538,+00.2643,+01.095,-00.038,-09.514,-00.000305,-00.000206,-00.000244*6E"
354,14.160056118000284,vn200,VNYMR,-83.458,6.63,0.077,0.0267,0.0529,0.2631,1.122,-0.012,-9.531,0.000442,0.000749,0.001166,,,,,,,,,,"$VNYMR,-083.458,+006.630,+000.077,+00.0267,+00.0529,+00.2631,+01.122,-00.012,-09.531,+00.000442,+00.000749,+00.001166*67"
355,14.200058650001665,vn200,VNYMR,-83.458,6.629,0.076,0.0245,0.0514,0.265,1.101,-0.007,-9.514,-0.000167,-0.001314,0.000451,,,,,,,,,,"$VNYMR,-083.458,+006.629,+000.076,+00.0245,+00.0514,+00.2650,+01.101,-00.007,-09.514,-00.000167,-00.001314,+00.000451*6A"
356,14.24005625600148,vn200,VNYMR,-83.456,6.63,0.078,0.0262,0.0546,0.2634,1.097,-0.02,-9.539,0.001062,0.000681,0.000859,,,,,,,,,,"$VNYMR,-083.456,+006.630,+000.078,+00.0262,+00.0546,+00.2634,+01.097,-00.020,-09.539,+00.001062,+00.000681,+00.000859*6F"
357,14.280056473000514,vn200,VNYMR,-83.456,6.629,0.078,0.0257,0.0533,0.2629,1.118,0.014,-9.53,-0.000882,0.000527,-0.000386,,,,,,,,,,"$VNYMR,-083.456,+006.629,+000.078,+00.0257,+00.0533,+00.2629,+01.118,+00.014,-09.530,-00.000882,+00.000527,-00.000386*60"
358,14.320055857000625,vn200,VNYMR,-83.456,6.628,0.078,0.0258,0.0541,0.2629,1.098,-0.017,-9.56,5.5e-05,0.000139,-0.00073,,,,,,,,,,"$VNYMR,-083.456,+006.628,+000.078,+00.0258,+00.0541,+00.2629,+01.098,-00.017,-09.560,+00.000055,+00.000139,-00.000730*64"
359,14.360055815001033,vn200,VNYMR,-83.455,6.629,0.079,0.0255,0.0536,0.2629,1.105,0.003,-9.526,0.000894,-0.000263,-0.0003,,,,,,,,,,"$VNYMR,-083.455,+006.629,+000.079,+00.0255,+00.0536,+00.2629,+01.105,+00.003,-09.526,+00.000894,-00.000263,-00.000300*66"
360,14.400056106000193,vn200,VNYMR,-83.455,6.628,0.078,0.0267,0.0531,0.2638,1.126,0.013,-9.575,-0.001043,0.000406,0.001071,,,,,,,,,,"$VNYMR,-083.455,+006.628,+000.078,+00.0267,+00.0531,+00.2638,+01.126,+00.013,-09.575,-00.001043,+00.000406,+00.001071*62"
361,14.440056749001087,vn200,VNYMR,-83.456,6.63,0.078,0.0265,0.0555,0.2636,1.116,-0.018,-9.483,0.00031,0.001052,0.00062,,,,,,,,,,"$VNYMR,-083.456,+006.630,+000.078,+00.0265,+00.0555,+00.2636,+01.116,-00.018,-09.483,+00.000310,+00.001052,+00.000620*65"
362,14.48005624400139,vn200,VNYMR,-83.454,6.629,0.078,0.0264,0.0521,0.265,1.095,0.005,-9.543,0.000275,-0.001924,0.000509,,,,,,,,,,"$VNYMR,-083.454,+006.629,+000.078,+00.0264,+00.0521,+00.2650,+01.095,+00.005,-09.543,+00.000275,-00.001924,+00.000509*64"
363,14.520057905001522,vn200,VNYMR,-83.452,6.629,0.077,0.0267,0.0531,0.2643,1.104,-0.018,-9.533,-6.7e-05,-0.000468,-0.000606,,,,,,,,,,"$VNYMR,-083.452,+006.629,+000.077,+00.0267,+00.0531,+00.2643,+01.104,-00.018,-09.533,-00.000067,-00.000468,-00.000606*60"
364,14.56005773400102,vn200,VNYMR,-83.452,6.628,0.075,0.0253,0.0538,0.2641,1.1,0.018,-9.518,0.000636,0.001143,0.000107,,,,,,,,,,"$VNYMR,-083.452,+006.628,+000.075,+00.0253,+00.0538,+00.2641,+01.100,+00.018,-09.518,+00.000636,+00.001143,+00.000107*6B"
365,14.600058673000603,vn200,VNYMR,-83.454,6.627,0.076,0.0251,0.0543,0.2638,1.126,-0.038,-9.542,0.000383,0.000784,-0.000915,,,,,,,,,,"$VNYMR,-083.454,+006.627,+000.076,+00.0251,+00.0543,+00.2638,+01.126,-00.038,-09.542,+00.000383,+00.000784,-00.000915*64"
366,14.640058742001202,vn200,VNYMR,-83.454,6.627,0.078,0.0248,0.0548,0.2645,1.11,-0.031,-9.578,0.000718,-0.000254,0.000265,,,,,,,,,,"$VNYMR,-083.454,+006.627,+000.078,+00.0248,+00.0548,+00.2645,+01.110,-00.031,-09.578,+00.000718,-00.000254,+00.000265*64"
367,14.680058552001356,vn200,VNYMR,-83.454,6.627,0.078,0.0253,0.0538,0.2648,1.095,0.0,-9.516,3.9e-05,-0.000131,-0.001383,,,,,,,,,,"$VNYMR,-083.454,+006.627,+000.078,+00.0253,+00.0538,+00.2648,+01.095,+00.000,-09.516,+00.000039,-00.000131,-00.001383*6E"
368,14.720056398000452,vn200,VNYMR,-83.455,6.627,0.077,0.0262,0.0541,0.2626,1.137,-0.046,-9.558,-0.000425,-0.000875,0.000406,,,,,,,,,,"$VNYMR,-083.455,+006.627,+000.077,+00.0262,+00.0541,+00.2626,+01.137,-00.046,-09.558,-00.000425,-00.000875,+00.000406*68"
369,14.760055393000584,vn200,VNYMR,-83.454,6.627,0.078,0.0255,0.0536,0.2643,1.089,0.014,-9.552,0.000278,8.3e-05,0.002624,,,,,,,,,,"$VNYMR,-083.454,+006.627,+000.078,+00.0255,+00.0536,+00.2643,+01.089,+00.014,-09.552,+00.000278,+00.000083,+00.002624*61"
370,14.800056332000167,vn200,VNYMR,-83.454,6.626,0.079,0.0253,0.0541,0.2648,1.1,-0.04,-9.551,0.00053,0.000746,-0.000462,,,,,,,,,,"$VNYMR,-083.454,+006.626,+000.079,+00.0253,+00.0541,+00.2648,+01.100,-00.040,-09.551,+00.000530,+00.000746,-00.000462*69"
371,14.840055493999898,vn200,VNYMR,-83.454,6.624,0.079,0.0272,0.0553,0.2641,1.109,-0.032,-9.537,-0.000648,0.000411,-0.000538,,,,,,,,,,"$VNYMR,-083.454,+006.624,+000.079,+00.0272,+00.0553,+00.2641,+01.109,-00.032,-09.537,-00.000648,+00.000411,-00.000538*6B"
372,14.880055081001046,vn200,VNYMR,-83.454,6.625,0.081,0.0267,0.055,0.2631,1.098,-0.021,-9.561,-0.000478,0.000528,-0.000142,,,,,,,,,,"$VNYMR,-083.454,+006.625,+000.081,+00.0267,+00.0550,+00.2631,+01.098,-00.021,-09.561,-00.000478,+00.000528,-00.000142*66"
373,14.920057447001454,vn200,VNYMR,-83.455,6.627,0.079,0.026,0.0536,0.2653,1.125,-0.03,-9.549,0.000502,-0.000381,-5.7e-05,,,,,,,,,,"$VNYMR,-083.455,+006.627,+000.079,+00.0260,+00.0536,+00.2653,+01.125,-00.030,-09.549,+00.000502,-00.000381,-00.000057*60"
374,14.960059293000086,vn200,VNYMR,-83.456,6.626,0.077,0.0262,0.055,0.2631,1.095,-0.003,-9.543,0.000186,-0.000745,-0.000807,,,,,,,,,,"$VNYMR,-083.456,+006.626,+000.077,+00.0262,+00.0550,+00.2631,+01.095,-00.003,-09.543,+00.000186,-00.000745,-00.000807*63"
375,15.000055844000599,vn200,VNYMR,-83.457,6.624,0.077,0.0258,0.0543,0.2624,1.088,-0.024,-9.56,5.4e-05,2e-05,-0.001367,,,,,,,,,,"$VNYMR,-083.457,+006.624,+000.077,+00.0258,+00.0543,+00.2624,+01.088,-00.024,-09.560,+00.000054,+00.000020,-00.001367*67"
376,15.04006395000033,vn200,VNYMR,-83.457,6.622,0.078,0.0248,0.0538,0.265,1.092,-0.025,-9.562,-0.001085,0.001979,-0.000483,,,,,,,,,,"$VNYMR,-083.457,+006.622,+000.078,+00.0248,+00.0538,+00.2650,+01.092,-00.025,-09.562,-00.001085,+00.001979,-00.000483*6B"
377,15.080058797000675,vn200,VNYMR,-83.458,6.621,0.078,0.0267,0.0531,0.2629,1.092,-0.009,-9.531,0.000319,4.3e-05,-0.000462,,,,,,,,,,"$VNYMR,-083.458,+006.621,+000.078,+00.0267,+00.0531,+00.2629,+01.092,-00.009,-09.531,+00.000319,+00.000043,-00.000462*6A"
378,15.120058625001548,vn200,VNYMR,-83.46,6.621,0.079,0.0258,0.0538,0.2631,1.101,-0.036,-9.545,-0.000846,0.000354,-0.000914,,,,,,,,,,"$VNYMR,-083.460,+006.621,+000.079,+00.0258,+00.0538,+00.2631,+01.101,-00.036,-09.545,-00.000846,+00.000354,-00.000914*66"
379,15.160058286001004,vn200,VNYMR,-83.46,6.621,0.08,0.0255,0.0543,0.2634,1.116,-0.043,-9.543,0.000476,-0.000356,-0.000309,,,,,,,,,,"$VNYMR,-083.460,+006.621,+000.080,+00.0255,+00.0543,+00.2634,+01.116,-00.043,-09.543,+00.000476,-00.000356,-00.000309*6D"
380,15.200061225999889,vn200,VNYMR,-83.46,6.623,0.082,0.0253,0.0541,0.2643,1.11,-0.036,-9.544,-0.00086,0.001506,-0.000897,,,,,,,,,,"$VNYMR,-083.460,+006.623,+000.082,+00.0253,+00.0541,+00.2643,+01.110,-00.036,-09.544,-00.000860,+00.001506,-00.000897*6F"
381,15.240058443001544,vn200,VNYMR,-83.462,6.623,0.082,0.0253,0.0553,0.2643,1.117,-0.038,-9.567,-0.000652,2.7e-05,-0.000548,,,,,,,,,,"$VNYMR,-083.462,+006.623,+000.082,+00.0253,+00.0553,+00.2643,+01.117,-00.038,-09.567,-00.000652,+00.000027,-00.000548*61"
382,15.280057604000831,vn200,VNYMR,-83.462,6.624,0.082,0.0258,0.0543,0.2622,1.109,-0.025,-9.541,-0.000496,0.000977,0.000902,,,,,,,,,,"$VNYMR,-083.462,+006.624,+000.082,+00.0258,+00.0543,+00.2622,+01.109,-00.025,-09.541,-00.000496,+00.000977,+00.000902*6E"
383,15.320058821000202,vn200,VNYMR,-83.463,6.624,0.081,0.0265,0.0546,0.2629,1.108,-0.017,-9.544,-0.000297,-0.000594,-0.000331,,,,,,,,,,"$VNYMR,-083.463,+006.624,+000.081,+00.0265,+00.0546,+00.2629,+01.108,-00.017,-09.544,-00.000297,-00.000594,-00.000331*65"
384,15.360055983001075,vn200,VNYMR,-83.464,6.624,0.082,0.0255,0.0538,0.2658,1.126,-0.021,-9.551,0.001267,-7.9e-05,1.7e-05,,,,,,,,,,"$VNYMR,-083.464,+006.624,+000.082,+00.0255,+00.0538,+00.2658,+01.126,-00.021,-09.551,+00.001267,-00.000079,+00.000017*6F"
385,15.400058385001103,vn200,VNYMR,-83.463,6.623,0.081,0.0255,0.0546,0.2629,1.121,0.013,-9.547,-0.000681,0.000272,3.2e-05,,,,,,,,,,"$VNYMR,-083.463,+006.623,+000.081,+00.0255,+00.0546,+00.2629,+01.121,+00.013,-09.547,-00.000681,+00.000272,+00.000032*67"
386,15.44005884300168,vn200,VNYMR,-83.464,6.623,0.08,0.0257,0.0538,0.2646,1.102,0.004,-9.525,-1.9e-05,-0.000156,0.000916,,,,,,,,,,"$VNYMR,-083.464,+006.623,+000.080,+00.0257,+00.0538,+00.2646,+01.102,+00.004,-09.525,-00.000019,-00.000156,+00.000916*6B"
387,15.480058801000268,vn200,VNYMR,-83.466,6.623,0.081,0.0262,0.0541,0.2631,1.108,-0.029,-9.516,-0.000124,-0.000608,-0.000305,,,,,,,,,,"$VNYMR,-083.466,+006.623,+000.081,+00.0262,+00.0541,+00.2631,+01.108,-00.029,-09.516,-00.000124,-00.000608,-00.000305*6E"
388,15.520057981000718,vn200,VNYMR,-83.468,6.623,0.08,0.0265,0.0536,0.2634,1.106,0.002,-9.519,-0.000504,0.001239,-0.001684,,,,,,,,,,"$VNYMR,-083.468,+006.623,+000.080,+00.0265,+00.0536,+00.2634,+01.106,+00.002,-09.519,-00.000504,+00.001239,-00.001684*67"
389,15.560057791000872,vn200,VNYMR,-83.468,6.623,0.081,0.0262,0.0538,0.2643,1.115,-0.028,-9.54,-0.000274,0.001297,-0.001318,,,,,,,,,,"$VNYMR,-083.468,+006.623,+000.081,+00.0262,+00.0538,+00.2643,+01.115,-00.028,-09.540,-00.000274,+00.001297,-00.001318*6B"
390,15.600056527000561,vn200,VNYMR,-83.468,6.623,0.079,0.0265,0.0538,0.2617,1.093,-0.017,-9.547,-0.000783,-0.000313,5e-05,,,,,,,,,,"$VNYMR,-083.468,+006.623,+000.079,+00.0265,+00.0538,+00.2617,+01.093,-00.017,-09.547,-00.000783,-00.000313,+00.000050*61"
391,15.640057670001625,vn200,VNYMR,-83.469,6.624,0.079,0.0255,0.0536,0.2636,1.135,0.008,-9.554,0.000711,0.000961,0.00043,,,,,,,,,,"$VNYMR,-083.469,+006.624,+000.079,+00.0255,+00.0536,+00.2636,+01.135,+00.008,-09.554,+00.000711,+00.000961,+00.000430*68"
392,15.680058387000827,vn200,VNYMR,-83.466,6.623,0.079,0.0257,0.0526,0.2631,1.108,-0.018,-9.536,0.000469,7e-05,0.000738,,,,,,,,,,"$VNYMR,-083.466,+006.623,+000.079,+00.0257,+00.0526,+00.2631,+01.108,-00.018,-09.536,+00.000469,+00.000070,+00.000738*67"
393,15.72005869700115,vn200,VNYMR,-83.466,6.624,0.079,0.0258,0.0541,0.2626,1.134,-0.005,-9.48,-0.000415,-0.000713,0.000952,,,,,,,,,,"$VNYMR,-083.466,+006.624,+000.079,+00.0258,+00.0541,+00.2626,+01.134,-00.005,-09.480,-00.000415,-00.000713,+00.000952*6C"
394,15.760058580000987,vn200,VNYMR,-83.468,6.623,0.079,0.0253,0.0533,0.2643,1.129,-0.009,-9.549,-0.000321,-0.001312,-0.000386,,,,,,,,,,"$VNYMR,-083.468,+006.623,+000.079,+00.0253,+00.0533,+00.2643,+01.129,-00.009,-09.549,-00.000321,-00.001312,-00.000386*6D"
395,15.800061945999914,vn200,VNYMR,-83.468,6.624,0.079,0.025,0.0541,0.2643,1.116,-0.0,-9.551,0.000127,0.000243,0.00075,,,,,,,,,,"$VNYMR,-083.468,+006.624,+000.079,+00.0250,+00.0541,+00.2643,+01.116,-00.000,-09.551,+00.000127,+00.000243,+00.000750*69"
396,15.840058107000004,vn200,VNYMR,-83.467,6.624,0.078,0.0253,0.0533,0.2629,1.113,-0.002,-9.54,-0.000222,-0.001339,0.000771,,,,,,,,,,"$VNYMR,-083.467,+006.624,+000.078,+00.0253,+00.0533,+00.2629,+01.113,-00.002,-09.540,-00.000222,-00.001339,+00.000771*62"
397,15.880056010000771,vn200,VNYMR,-83.467,6.623,0.077,0.0253,0.0546,0.2641,1.11,-0.02,-9.565,-0.000106,-8.1e-05,0.000336,,,,,,,,,,"$VNYMR,-083.467,+006.623,+000.077,+00.0253,+00.0546,+00.2641,+01.110,-00.020,-09.565,-00.000106,-00.000081,+00.000336*61"
398,15.920057134000672,vn200,VNYMR,-83.465,6.623,0.077,0.0258,0.0553,0.2636,1.095,-0.011,-9.527,-0.000871,7.7e-05,-0.00014,,,,,,,,,,"$VNYMR,-083.465,+006.623,+000.077,+00.0258,+00.0553,+00.2636,+01.095,-00.011,-09.527,-00.000871,+00.000077,-00.000140*67"
399,15.960056036999958,vn200,VNYMR,-83.465,6.622,0.077,0.0251,0.0536,0.2622,1.103,-0.006,-9.528,-0.00012,-0.002214,-0.000419,,,,,,,,,,"$VNYMR,-083.465,+006.622,+000.077,+00.0251,+00.0536,+00.2622,+01.103,-00.006,-09.528,-00.000120,-00.002214,-00.000419*69"
400,16.000055902000895,vn200,VNYMR,-83.466,6.62,0.077,0.0255,0.0536,0.2638,1.104,0.011,-9.545,-0.000434,-0.000568,0.000484,,,,,,,,,,"$VNYMR,-083.466,+006.620,+000.077,+00.0255,+00.0536,+00.2638,+01.104,+00.011,-09.545,-00.000434,-00.000568,+00.000484*67"
401,16.04006669299997,vn200,VNYMR,-83.467,6.618,0.076,0.0251,0.0548,0.2619,1.104,-0.029,-9.513,-0.000654,-0.001737,-0.001102,,,,,,,,,,"$VNYMR,-083.467,+006.618,+000.076,+00.0251,+00.0548,+00.2619,+01.104,-00.029,-09.513,-00.000654,-00.001737,-00.001102*6D"
402,16.08005792900076,vn200,VNYMR,-83.467,6.618,0.075,0.0265,0.0538,0.2629,1.086,0.012,-9.531,0.000214,-0.001235,-1.8e-05,,,,,,,,,,"$VNYMR,-083.467,+006.618,+000.075,+00.0265,+00.0538,+00.2629,+01.086,+00.012,-09.531,+00.000214,-00.001235,-00.000018*62"
403,16.120058720000088,vn200,VNYMR,-83.468,6.619,0.074,0.0255,0.0545,0.2624,1.112,-0.012,-9.533,0.000225,-0.00049,0.000212,,,,,,,,,,"$VNYMR,-083.468,+006.619,+000.074,+00.0255,+00.0545,+00.2624,+01.112,-00.012,-09.533,+00.000225,-00.000490,+00.000212*65"
404,16.16005556700111,vn200,VNYMR,-83.468,6.62,0.074,0.0251,0.0536,0.2615,1.137,-0.016,-9.531,-0.00031,0.000219,-0.000329,,,,,,,,,,"$VNYMR,-083.468,+006.620,+000.074,+00.0251,+00.0536,+00.2615,+01.137,-00.016,-09.531,-00.000310,+00.000219,-00.000329*63"
405,16.200057339001432,vn200,VNYMR,-83.47,6.62,0.075,0.0253,0.0524,0.2641,1.101,0.002,-9.497,0.001203,-0.000199,-0.000329,,,,,,,,,,"$VNYMR,-083.470,+006.620,+000.075,+00.0253,+00.0524,+00.2641,+01.101,+00.002,-09.497,+00.001203,-00.000199,-00.000329*69"
406,16.240055927000867,vn200,VNYMR,-83.471,6.618,0.073,0.0255,0.0533,0.2622,1.109,-0.004,-9.533,-0.000361,-0.000385,0.0009,,,,,,,,,,"$VNYMR,-083.471,+006.618,+000.073,+00.0255,+00.0533,+00.2622,+01.109,-00.004,-09.533,-00.000361,-00.000385,+00.000900*6D"
407,16.280056403000344,vn200,VNYMR,-83.47,6.618,0.073,0.026,0.0541,0.2631,1.128,-0.015,-9.513,0.000634,0.000682,-1.8e-05,,,,,,,,,,"$VNYMR,-083.470,+006.618,+000.073,+00.0260,+00.0541,+00.2631,+01.128,-00.015,-09.513,+00.000634,+00.000682,-00.000018*6D"
408,16.32005834300071,vn200,VNYMR,-83.471,6.619,0.072,0.026,0.0541,0.2636,1.097,0.001,-9.52,-0.000329,5e-06,4.6e-05,,,,,,,,,,"$VNYMR,-083.471,+006.619,+000.072,+00.0260,+00.0541,+00.2636,+01.097,+00.001,-09.520,-00.000329,+00.000005,+00.000046*66"
409,16.36005896700044,vn200,VNYMR,-83.471,6.618,0.073,0.026,0.0548,0.2641,1.109,-0.01,-9.537,0.00066,-0.000543,-0.000216,,,,,,,,,,"$VNYMR,-083.471,+006.618,+000.073,+00.0260,+00.0548,+00.2641,+01.109,-00.010,-09.537,+00.000660,-00.000543,-00.000216*67"
410,16.400058703000468,vn200,VNYMR,-83.473,6.618,0.073,0.0253,0.0545,0.2631,1.107,-0.01,-9.56,-0.000177,-0.000103,0.000299,,,,,,,,,,"$VNYMR,-083.473,+006.618,+000.073,+00.0253,+00.0545,+00.2631,+01.107,-00.010,-09.560,-00.000177,-00.000103,+00.000299*65"
411,16.440058383001087,vn200,VNYMR,-83.472,6.617,0.074,0.0253,0.0546,0.2653,1.11,-0.024,-9.564,0.000628,-0.000503,-0.000951,,,,,,,,,,"$VNYMR,-083.472,+006.617,+000.074,+00.0253,+00.0546,+00.2653,+01.110,-00.024,-09.564,+00.000628,-00.000503,-00.000951*68"
412,16.48005830400143,vn200,VNYMR,-83.473,6.616,0.073,0.0255,0.0543,0.2641,1.098,-0.006,-9.554,-0.000419,0.000283,0.000123,,,,,,,,,,"$VNYMR,-083.473,+006.616,+000.073,+00.0255,+00.0543,+00.2641,+01.098,-00.006,-09.554,-00.000419,+00.000283,+00.000123*69"
413,16.520056410001416,vn200,VNYMR,-83.472,6.615,0.073,0.0251,0.055,0.2622,1.127,-0.018,-9.551,0.000731,-0.001077,-0.000476,,,,,,,,,,"$VNYMR,-083.472,+006.615,+000.073,+00.0251,+00.0550,+00.2622,+01.127,-00.018,-09.551,+00.000731,-00.001077,-00.000476*65"
414,16.56005610900138,vn200,VNYMR,-83.471,6.615,0.075,0.0253,0.055,0.2641,1.118,-0.003,-9.484,0.000168,0.00039,-0.000429,,,,,,,,,,"$VNYMR,-083.471,+006.615,+000.075,+00.0253,+00.0550,+00.2641,+01.118,-00.003,-09.484,+00.000168,+00.000390,-00.000429*65"
415,16.600056141000096,vn200,VNYMR,-83.472,6.616,0.076,0.0262,0.0551,0.266,1.124,-0.023,-9.542,0.000625,-0.000101,-0.001662,,,,,,,,,,"$VNYMR,-083.472,+006.616,+000.076,+00.0262,+00.0551,+00.2660,+01.124,-00.023,-09.542,+00.000625,-00.000101,-00.001662*6E"
416,16.640055099000165,vn200,VNYMR,-83.471,6.617,0.077,0.0253,0.0541,0.2662,1.112,-0.023,-9.54,0.000811,0.001614,-0.000768,,,,,,,,,,"$VNYMR,-083.471,+006.617,+000.077,+00.0253,+00.0541,+00.2662,+01.112,-00.023,-09.540,+00.000811,+00.001614,-00.000768*6C"
417,16.680057927000234,vn200,VNYMR,-83.471,6.616,0.077,0.026,0.0543,0.2634,1.129,-0.001,-9.534,-0.000728,0.000618,0.000491,,,,,,,,,,"$VNYMR,-083.471,+006.616,+000.077,+00.0260,+00.0543,+00.2634,+01.129,-00.001,-09.534,-00.000728,+00.000618,+00.000491*6A"
418,16.720059848001256,vn200,VNYMR,-83.471,6.618,0.077,0.0255,0.0548,0.2629,1.083,-0.015,-9.511,0.000185,-0.000158,7e-06,,,,,,,,,,"$VNYMR,-083.471,+006.618,+000.077,+00.0255,+00.0548,+00.2629,+01.083,-00.015,-09.511,+00.000185,-00.000158,+00.000007*6F"
419,16.760060677001093,vn200,VNYMR,-83.471,6.617,0.076,0.0255,0.0533,0.2638,1.124,-0.022,-9.559,-0.000991,-7e-06,-2.2e-05,,,,,,,,,,"$VNYMR,-083.471,+006.617,+000.076,+00.0255,+00.0533,+00.2638,+01.124,-00.022,-09.559,-00.000991,-00.000007,-00.000022*68"
420,16.800058301001627,vn200,VNYMR,-83.471,6.616,0.078,0.026,0.0531,0.2648,1.08,-0.046,-9.535,-0.001482,-0.000672,0.000523,,,,,,,,,,"$VNYMR,-083.471,+006.616,+000.078,+00.0260,+00.0531,+00.2648,+01.080,-00.046,-09.535,-00.001482,-00.000672,+00.000523*6B"
421,16.84005768499992,vn200,VNYMR,-83.471,6.617,0.078,0.0253,0.055,0.2626,1.099,0.004,-9.532,0.000371,0.000203,0.000358,,,,,,,,,,"$VNYMR,-083.471,+006.617,+000.078,+00.0253,+00.0550,+00.2626,+01.099,+00.004,-09.532,+00.000371,+00.000203,+00.000358*68"
422,16.880057420999947,vn200,VNYMR,-83.471,6.615,0.078,0.026,0.0538,0.2636,1.11,-0.021,-9.547,0.000902,0.000295,-0.000123,,,,,,,,,,"$VNYMR,-083.471,+006.615,+000.078,+00.0260,+00.0538,+00.2636,+01.110,-00.021,-09.547,+00.000902,+00.000295,-00.000123*6F"
423,16.920056990000376,vn200,VNYMR,-83.473,6.618,0.077,0.0255,0.0548,0.2646,1.111,-0.027,-9.537,-0.000101,-0.000995,0.000216,,,,,,,,,,"$VNYMR,-083.473,+006.618,+000.077,+00.0255,+00.0548,+00.2646,+01.111,-00.027,-09.537,-00.000101,-00.000995,+00.000216*6A"
424,16.960068318001504,vn200,VNYMR,-83.473,6.616,0.076,0.0258,0.0548,0.2646,1.084,0.012,-9.519,0.000129,-0.000171,0.000102,,,,,,,,,,"$VNYMR,-083.473,+006.616,+000.076,+00.0258,+00.0548,+00.2646,+01.084,+00.012,-09.519,+00.000129,-00.000171,+00.000102*61"
425,17.00005935000081,vn200,VNYMR,-83.472,6.617,0.076,0.0251,0.0538,0.2626,1.145,-0.008,-9.527,-1.9e-05,0.00055,-0.000151,,,,,,,,,,"$VNYMR,-083.472,+006.617,+000.076,+00.0251,+00.0538,+00.2626,+01.145,-00.008,-09.527,-00.000019,+00.000550,-00.000151*60"
426,17.040056548999928,vn200,VNYMR,-83.472,6.618,0.076,0.0267,0.0538,0.2617,1.084,-0.019,-9.55,-0.000365,-0.000432,-0.000796,,,,,,,,,,"$VNYMR,-083.472,+006.618,+000.076,+00.0267,+00.0538,+00.2617,+01.084,-00.019,-09.550,-00.000365,-00.000432,-00.000796*62"
427,17.080056525001055,vn200,VNYMR,-83.473,6.618,0.075,0.0258,0.0555,0.2634,1.085,-0.004,-9.501,-0.000452,0.000721,-0.000506,,,,,,,,,,"$VNYMR,-083.473,+006.618,+000.075,+00.0258,+00.0555,+00.2634,+01.085,-00.004,-09.501,-00.000452,+00.000721,-00.000506*60"
428,17.120058780001273,vn200,VNYMR,-83.474,6.617,0.076,0.0262,0.0546,0.2622,1.096,-0.005,-9.571,-0.000706,-0.000502,-0.001357,,,,,,,,,,"$VNYMR,-083.474,+006.617,+000.076,+00.0262,+00.0546,+00.2622,+01.096,-00.005,-09.571,-00.000706,-00.000502,-00.001357*67"
429,17.160056755999904,vn200,VNYMR,-83.474,6.616,0.078,0.0265,0.056,0.2631,1.106,-0.005,-9.54,2.9e-05,-0.00025,-0.001391,,,,,,,,,,"$VNYMR,-083.474,+006.616,+000.078,+00.0265,+00.0560,+00.2631,+01.106,-00.005,-09.540,+00.000029,-00.000250,-00.001391*65"
430,17.200060807001137,vn200,VNYMR,-83.475,6.616,0.077,0.0262,0.055,0.2636,1.106,0.002,-9.563,-0.000927,-0.001665,0.000499,,,,,,,,,,"$VNYMR,-083.475,+006.616,+000.077,+00.0262,+00.0550,+00.2636,+01.106,+00.002,-09.563,-00.000927,-00.001665,+00.000499*62"
431,17.240058024000973,vn200,VNYMR,-83.476,6.617,0.078,0.0262,0.0533,0.2646,1.118,-0.007,-9.582,0.000365,-0.000255,-0.001663,,,,,,,,,,"$VNYMR,-083.476,+006.617,+000.078,+00.0262,+00.0533,+00.2646,+01.118,-00.007,-09.582,+00.000365,-00.000255,-00.001663*62"
432,17.280056111001613,vn200,VNYMR,-83.476,6.617,0.077,0.0251,0.0536,0.2622,1.113,-0.0,-9.526,-0.000504,0.000726,0.000257,,,,,,,,,,"$VNYMR,-083.476,+006.617,+000.077,+00.0251,+00.0536,+00.2622,+01.113,-00.000,-09.526,-00.000504,+00.000726,+00.000257*6C"
433,17.320056403001217,vn200,VNYMR,-83.476,6.617,0.076,0.0255,0.0548,0.2643,1.118,-0.02,-9.543,-0.000608,-0.00032,0.001321,,,,,,,,,,"$VNYMR,-083.476,+006.617,+000.076,+00.0255,+00.0548,+00.2643,+01.118,-00.020,-09.543,-00.000608,-00.000320,+00.001321*67"
434,17.360055731000102,vn200,VNYMR,-83.477,6.615,0.076,0.0248,0.0536,0.2634,1.103,-0.02,-9.545,-0.000555,-4e-05,0.001114,,,,,,,,,,"$VNYMR,-083.477,+006.615,+000.076,+00.0248,+00.0536,+00.2634,+01.103,-00.020,-09.545,-00.000555,-00.000040,+00.001114*67"
435,17.40005578199998,vn200,VNYMR,-83.479,6.615,0.075,0.0253,0.0558,0.2622,1.143,-0.008,-9.507,-0.000522,-5.8e-05,-0.000254,,,,,,,,,,"$VNYMR,-083.479,+006.615,+000.075,+00.0253,+00.0558,+00.2622,+01.143,-00.008,-09.507,-00.000522,-00.000058,-00.000254*6E"
436,17.440055647000918,vn200,VNYMR,-83.479,6.616,0.074,0.0255,0.0548,0.2629,1.113,-0.025,-9.541,-0.000753,0.000696,9e-05,,,,,,,,,,"$VNYMR,-083.479,+006.616,+000.074,+00.0255,+00.0548,+00.2629,+01.113,-00.025,-09.541,-00.000753,+00.000696,+00.000090*62"
437,17.480056383001283,vn200,VNYMR,-83.48,6.615,0.075,0.026,0.0533,0.265,1.103,-0.021,-9.565,5.4e-05,-7e-05,0.000218,,,,,,,,,,"$VNYMR,-083.480,+006.615,+000.075,+00.0260,+00.0533,+00.2650,+01.103,-00.021,-09.565,+00.000054,-00.000070,+00.000218*6D"
438,17.520056174000274,vn200,VNYMR,-83.48,6.615,0.075,0.025,0.0524,0.2629,1.107,-0.023,-9.502,-0.001145,-3.3e-05,-0.000249,,,,,,,,,,"$VNYMR,-083.480,+006.615,+000.075,+00.0250,+00.0524,+00.2629,+01.107,-00.023,-09.502,-00.001145,-00.000033,-00.000249*62"
439,17.560056151000026,vn200,VNYMR,-83.478,6.616,0.076,0.0251,0.0541,0.2629,1.105,-0.024,-9.534,0.000384,0.002015,-0.00043,,,,,,,,,,"$VNYMR,-083.478,+006.616,+000.076,+00.0251,+00.0541,+00.2629,+01.105,-00.024,-09.534,+00.000384,+00.002015,-00.000430*67"
440,17.6000555720002,vn200,VNYMR,-83.477,6.616,0.078,0.0262,0.0533,0.2626,1.094,-0.018,-9.537,0.001182,0.000175,-0.000141,,,,,,,,,,"$VNYMR,-083.477,+006.616,+000.078,+00.0262,+00.0533,+00.2626,+01.094,-00.018,-09.537,+00.001182,+00.000175,-00.000141*6A"
441,17.640056232999996,vn200,VNYMR,-83.476,6.617,0.076,0.026,0.0531,0.2629,1.104,-0.028,-9.54,-0.001185,0.001047,-0.000185,,,,,,,,,,"$VNYMR,-083.476,+006.617,+000.076,+00.0260,+00.0531,+00.2629,+01.104,-00.028,-09.540,-00.001185,+00.001047,-00.000185*68"
442,17.680058599000404,vn200,VNYMR,-83.475,6.617,0.076,0.0258,0.0543,0.2638,1.105,-0.008,-9.498,0.000193,0.000723,0.000177,,,,,,,,,,"$VNYMR,-083.475,+006.617,+000.076,+00.0258,+00.0543,+00.2638,+01.105,-00.008,-09.498,+00.000193,+00.000723,+00.000177*6D"
443,17.720055835001403,vn200,VNYMR,-83.476,6.617,0.075,0.0253,0.0541,0.2657,1.113,-0.007,-9.513,0.00012,-0.000128,-0.000345,,,,,,,,,,"$VNYMR,-083.476,+006.617,+000.075,+00.0253,+00.0541,+00.2657,+01.113,-00.007,-09.513,+00.000120,-00.000128,-00.000345*61"
444,17.760056181001346,vn200,VNYMR,-83.477,6.619,0.076,0.0262,0.0541,0.2617,1.097,-0.005,-9.535,-0.001181,0.000609,-0.002046,,,,,,,,,,"$VNYMR,-083.477,+006.619,+000.076,+00.0262,+00.0541,+00.2617,+01.097,-00.005,-09.535,-00.001181,+00.000609,-00.002046*6C"
445,17.800055454001267,vn200,VNYMR,-83.477,6.619,0.075,0.026,0.0541,0.2653,1.125,-0.032,-9.543,-0.001155,0.000101,0.000642,,,,,,,,,,"$VNYMR,-083.477,+006.619,+000.075,+00.0260,+00.0541,+00.2653,+01.125,-00.032,-09.543,-00.001155,+00.000101,+00.000642*60"
446,17.84005941200121,vn200,VNYMR,-83.476,6.618,0.077,0.0255,0.0531,0.2619,1.098,-0.028,-9.526,-0.000366,5e-06,0.000602,,,,,,,,,,"$VNYMR,-083.476,+006.618,+000.077,+00.0255,+00.0531,+00.2619,+01.098,-00.028,-09.526,-00.000366,+00.000005,+00.000602*60"
447,17.880057389000285,vn200,VNYMR,-83.476,6.619,0.078,0.0269,0.0536,0.2641,1.089,-0.007,-9.507,-0.000821,-0.000139,4.5e-05,,,,,,,,,,"$VNYMR,-083.476,+006.619,+000.078,+00.0269,+00.0536,+00.2641,+01.089,-00.007,-09.507,-00.000821,-00.000139,+00.000045*60"
448,17.92005588400025,vn200,VNYMR,-83.478,6.618,0.077,0.025,0.0533,0.2648,1.099,0.001,-9.521,-0.000197,-0.000447,-0.000434,,,,,,,,,,"$VNYMR,-083.478,+006.618,+000.077,+00.0250,+00.0533,+00.2648,+01.099,+00.001,-09.521,-00.000197,-00.000447,-00.000434*6F"
449,17.96005578600125,vn200,VNYMR,-83.479,6.618,0.078,0.0255,0.0543,0.2643,1.1,-0.026,-9.556,-0.000703,-0.000407,0.000168,,,,,,,,,,"$VNYMR,-083.479,+006.618,+000.078,+00.0255,+00.0543,+00.2643,+01.100,-00.026,-09.556,-00.000703,-00.000407,+00.000168*6F"
450,18.000055800001064,vn200,VNYMR,-83.48,6.617,0.078,0.0255,0.0541,0.261,1.094,0.01,-9.52,-6.3e-05,0.000352,-0.00074,,,,,,,,,,"$VNYMR,-083.480,+006.617,+000.078,+00.0255,+00.0541,+00.2610,+01.094,+00.010,-09.520,-00.000063,+00.000352,-00.000740*66"
451,18.040056813000774,vn200,VNYMR,-83.483,6.618,0.078,0.0262,0.0541,0.2658,1.121,-0.011,-9.545,-0.000561,-7e-05,-0.00041,,,,,,,,,,"$VNYMR,-083.483,+006.618,+000.078,+00.0262,+00.0541,+00.2658,+01.121,-00.011,-09.545,-00.000561,-00.000070,-00.000410*6D"
452,18.08005582700025,vn200,VNYMR,-83.483,6.618,0.077,0.026,0.0533,0.2648,1.108,-0.01,-9.535,-9e-05,-0.000111,-0.000331,,,,,,,,,,"$VNYMR,-083.483,+006.618,+000.077,+00.0260,+00.0533,+00.2648,+01.108,-00.010,-09.535,-00.000090,-00.000111,-00.000331*60"
453,18.120055859000786,vn200,VNYMR,-83.483,6.62,0.077,0.0258,0.0543,0.2636,1.107,-0.018,-9.493,-0.000343,0.001557,-0.000406,,,,,,,,,,"$VNYMR,-083.483,+006.620,+000.077,+00.0258,+00.0543,+00.2636,+01.107,-00.018,-09.493,-00.000343,+00.001557,-00.000406*6B"
454,18.160055743001067,vn200,VNYMR,-83.484,6.619,0.078,0.0262,0.0529,0.2648,1.113,-0.045,-9.515,0.000531,0.000722,0.000185,,,,,,,,,,"$VNYMR,-083.484,+006.619,+000.078,+00.0262,+00.0529,+00.2648,+01.113,-00.045,-09.515,+00.000531,+00.000722,+00.000185*6B"
455,18.200059775001137,vn200,VNYMR,-83.484,6.619,0.08,0.025,0.0526,0.2638,1.088,-0.043,-9.541,0.001324,-1.2e-05,-0.000605,,,,,,,,,,"$VNYMR,-083.484,+006.619,+000.080,+00.0250,+00.0526,+00.2638,+01.088,-00.043,-09.541,+00.001324,-00.000012,-00.000605*69"
456,18.240058215000317,vn200,VNYMR,-83.484,6.617,0.081,0.0255,0.0538,0.2643,1.101,-0.005,-9.536,0.000269,-0.000543,-0.000247,,,,,,,,,,"$VNYMR,-083.484,+006.617,+000.081,+00.0255,+00.0538,+00.2643,+01.101,-00.005,-09.536,+00.000269,-00.000543,-00.000247*68"
457,18.28005578400007,vn200,VNYMR,-83.485,6.617,0.081,0.0253,0.0543,0.2629,1.112,0.003,-9.566,0.000215,2.9e-05,0.000892,,,,,,,,,,"$VNYMR,-083.485,+006.617,+000.081,+00.0253,+00.0543,+00.2629,+01.112,+00.003,-09.566,+00.000215,+00.000029,+00.000892*68"
458,18.32005859400124,vn200,VNYMR,-83.486,6.616,0.08,0.0255,0.0531,0.2624,1.102,-0.022,-9.501,0.000315,-0.000315,-0.00113,,,,,,,,,,"$VNYMR,-083.486,+006.616,+000.080,+00.0255,+00.0531,+00.2624,+01.102,-00.022,-09.501,+00.000315,-00.000315,-00.001130*6D"
459,18.360058792000927,vn200,VNYMR,-83.486,6.615,0.08,0.026,0.0526,0.2641,1.115,-0.01,-9.559,-0.000277,-0.000766,-3.2e-05,,,,,,,,,,"$VNYMR,-083.486,+006.615,+000.080,+00.0260,+00.0526,+00.2641,+01.115,-00.010,-09.559,-00.000277,-00.000766,-00.000032*66"
460,18.40005723200011,vn200,VNYMR,-83.489,6.613,0.079,0.0253,0.0531,0.2638,1.092,-0.013,-9.576,-0.000664,0.000179,-0.000882,,,,,,,,,,"$VNYMR,-083.489,+006.613,+000.079,+00.0253,+00.0531,+00.2638,+01.092,-00.013,-09.576,-00.000664,+00.000179,-00.000882*6A"
461,18.440058208001574,vn200,VNYMR,-83.489,6.613,0.078,0.026,0.0529,0.2619,1.112,-0.003,-9.511,0.000425,-0.000756,-0.000926,,,,,,,,,,"$VNYMR,-083.489,+006.613,+000.078,+00.0260,+00.0529,+00.2619,+01.112,-00.003,-09.511,+00.000425,-00.000756,-00.000926*6B"
462,18.480058167000607,vn200,VNYMR,-83.49,6.612,0.078,0.0265,0.0553,0.2631,1.09,-0.002,-9.54,0.000179,-0.001049,0.000293,,,,,,,,,,"$VNYMR,-083.490,+006.612,+000.078,+00.0265,+00.0553,+00.2631,+01.090,-00.002,-09.540,+00.000179,-00.001049,+00.000293*69"
463,18.52005699500114,vn200,VNYMR,-83.491,6.613,0.075,0.0258,0.0555,0.2634,1.096,0.02,-9.554,-0.000171,-0.000196,-0.000118,,,,,,,,,,"$VNYMR,-083.491,+006.613,+000.075,+00.0258,+00.0555,+00.2634,+01.096,+00.020,-09.554,-00.000171,-00.000196,-00.000118*66"
464,18.560054972000216,vn200,VNYMR,-83.491,6.611,0.074,0.0253,0.0541,0.2624,1.069,0.026,-9.538,0.000125,-0.000171,0.000401,,,,,,,,,,"$VNYMR,-083.491,+006.611,+000.074,+00.0253,+00.0541,+00.2624,+01.069,+00.026,-09.538,+00.000125,-00.000171,+00.000401*63"
465,18.600056596000286,vn200,VNYMR,-83.493,6.612,0.074,0.0248,0.0553,0.2631,1.101,-0.028,-9.537,-0.000911,0.000499,8e-06,,,,,,,,,,"$VNYMR,-083.493,+006.612,+000.074,+00.0248,+00.0553,+00.2631,+01.101,-00.028,-09.537,-00.000911,+00.000499,+00.000008*66"
466,18.640058147000673,vn200,VNYMR,-83.494,6.613,0.073,0.0251,0.0553,0.2626,1.108,0.029,-9.536,0.000791,0.000389,-0.001518,,,,,,,,,,"$VNYMR,-083.494,+006.613,+000.073,+00.0251,+00.0553,+00.2626,+01.108,+00.029,-09.536,+00.000791,+00.000389,-00.001518*63"
467,18.680060975000742,vn200,VNYMR,-83.495,6.613,0.073,0.0265,0.0543,0.2631,1.111,-0.009,-9.55,-0.000473,-0.000207,-0.000265,,,,,,,,,,"$VNYMR,-083.495,+006.613,+000.073,+00.0265,+00.0543,+00.2631,+01.111,-00.009,-09.550,-00.000473,-00.000207,-00.000265*6A"
468,18.72005789600007,vn200,VNYMR,-83.496,6.613,0.072,0.0258,0.0546,0.2626,1.106,0.025,-9.525,-2.6e-05,2.2e-05,-0.000179,,,,,,,,,,"$VNYMR,-083.496,+006.613,+000.072,+00.0258,+00.0546,+00.2626,+01.106,+00.025,-09.525,-00.000026,+00.000022,-00.000179*60"
