sample,time_s,sensor,accel_x_g,accel_y_g,accel_z_g,accel_x_mps2,accel_y_mps2,accel_z_mps2,gyro_x_dps,gyro_y_dps,gyro_z_dps,gyro_x_radps,gyro_y_radps,gyro_z_radps,roll_deg,pitch_deg,yaw_deg,accel_roll_deg,accel_pitch_deg,temp_c,diag_stat,prod_id
0,0.0002882759999920381,adis16470,-0.02,0.0,1.00125,-0.196133,0.0,9.8189083125,-0.20699999999999993,-0.08599999999999998,0.021000000000000005,-0.003612831551628261,-0.001500983156715123,0.00036651914291880927,0.0,1.1443328032452083,0.0,0.0,1.1443328032452083,24.200000000000003,0x0000,0x4056
1,0.0413455719999547,adis16470,-0.02125,0.00125,0.9975,-0.2083913125,0.0122583125,9.782133375,0.2930000000000001,0.11400000000000003,0.321,0.005113814708343387,0.001989675347273536,0.005602506898901798,0.013224808706021912,1.1504409500737733,0.013178981778239177,0.07179918486439799,1.220401228121305,24.1,0x0000,0x4056
2,0.08228451600007247,adis16470,-0.02125,-0.00125,0.99625,-0.2083913125,-0.0122583125,9.769875062499999,0.1930000000000001,-0.08599999999999998,0.12100000000000001,0.0033684854563490576,-0.001500983156715123,0.002111848394913139,0.0192652951057374,1.1484206258523126,0.01813232284120477,-0.07188927157651441,1.2219320054415335,24.200000000000003,0x0000,0x4056
3,0.12317566499950772,adis16470,-0.0175,0.0,1.00125,-0.17161637500000002,0.0,9.8189083125,-0.006999999999999923,-0.286,-0.079,-0.00012217304763960173,-0.004991641660703782,-0.0013788101090755204,0.01859947693676203,1.1340177316963824,0.014901933762197585,0.0,1.0013224060710668,24.200000000000003,0x0000,0x4056
4,0.16405983099957666,adis16470,-0.01875,-0.00125,1.0025,-0.1838746875,-0.0122583125,9.831166624999998,0.09300000000000008,0.21400000000000008,0.021000000000000005,0.001623156204354728,0.0037350045992678668,0.00036651914291880927,0.020524836838936057,1.141341398557102,0.015760498539199034,-0.07144108456385073,1.0714910627496452,24.0,0x0000,0x4056
5,0.20494807199975185,adis16470,-0.02125,0.0025,1.0,-0.2083913125,0.024516625,9.80665,-0.006999999999999923,0.014000000000000026,0.22100000000000003,-0.00012217304763960173,0.0002443460952792066,0.003857177646907469,0.02269863016042445,1.1434225224201042,0.024796787424167632,0.14323915036830656,1.2173482967973137,24.1,0x0000,0x4056
6,0.24582468399967183,adis16470,-0.01625,0.0,1.0025,-0.1593580625,0.0,9.831166624999998,-0.10699999999999996,0.11400000000000003,-0.079,-0.0018675022996339319,0.001989675347273536,-0.0013788101090755204,0.017958340007542213,1.1436938678725654,0.021567538078142205,0.0,0.9286532526773692,24.3,0x0000,0x4056
7,0.2866922949997388,adis16470,-0.02,-0.00125,0.99875,-0.196133,-0.0122583125,9.7943916875,-0.30699999999999994,0.014000000000000026,0.321,-0.005358160803622591,0.0002443460952792066,0.005602506898901798,0.0038695627045959493,1.144324604950722,0.03468603543093286,-0.0717093236505815,1.1471955529828473,24.1,0x0000,0x4056
8,0.32756640600018727,adis16470,-0.01875,-0.01125,1.00125,-0.1838746875,-0.1103248125,9.8189083125,-0.707,0.11400000000000003,-0.079,-0.012339477811599909,0.001989675347273536,-0.0013788101090755204,-0.03740279254466003,1.1474598022044287,0.031456979160949236,-0.6437457141753808,1.0727615774572121,24.1,0x0000,0x4056
9,0.36843960999976844,adis16470,-0.08,-0.0725,1.0025,-0.784532,-0.7109821249999999,9.831166624999998,-0.30699999999999994,0.11400000000000003,-1.479,-0.005358160803622591,0.001989675347273536,-0.025813419636996137,-0.13167958809813954,1.220091553639345,-0.028994791271275973,-4.136383893672342,4.550728516861387,24.6,0x0000,0x4056
10,0.40933120299996517,adis16470,-0.02,0.01,0.9975,-0.196133,0.0980665,9.782133375,-0.006999999999999923,-0.08599999999999998,0.021000000000000005,-0.00012217304763960173,-0.001500983156715123,0.00036651914291880927,-0.11783902062443462,1.2152149138996837,-0.028136071724268734,0.5743745381882245,1.1485759557557245,24.1,0x0000,0x4056
11,0.4503446089993304,adis16470,-0.01875,-0.00375,1.0,-0.1838746875,-0.03677493749999999,9.80665,-0.507,-0.08599999999999998,0.12100000000000001,-0.008848819307611252,-0.001500983156715123,0.002111848394913139,-0.14015761013226202,1.2089372062522827,-0.02317338002325596,-0.2148581660301822,1.0741624474640776,24.3,0x0000,0x4056
12,0.49126653499934037,adis16470,0.00125,-0.00625,1.0050000000000001,0.0122583125,-0.0612915625,9.85568325,-0.707,-0.186,0.12100000000000001,-0.012339477811599909,-0.003246312408709453,0.002111848394913139,-0.17283369230208886,1.175874020996746,-0.018221858437252193,-0.35631244338452583,-0.07126199260026783,24.1,0x0000,0x4056
13,0.5322209979995023,adis16470,0.1325,0.02625,0.74625,1.299381125,0.25742456249999995,7.318212562499999,-4.106999999999999,0.41400000000000003,2.021,-0.0716806723794071,0.007225663103256525,0.035273104182805395,-0.2939207248093165,0.9677306103227146,0.06454696173181856,2.014598787870572,-10.062097247959523,24.1,0x0000,0x4056
14,0.573104145999423,adis16470,-0.0375,-0.043750000000000004,0.99625,-0.367749375,-0.4290409375,9.769875062499999,-3.407,-0.386,-0.179,-0.05946336761544681,-0.0067369709126981125,-0.00312413936106985,-0.47483562275817326,0.9759824796288774,0.05722887823983275,-2.514510245701381,2.153587936901357,24.3,0x0000,0x4056
15,0.6139919609995559,adis16470,-0.06625,-0.043750000000000004,1.0,-0.6496905625,-0.4290409375,9.80665,-0.10699999999999996,-0.286,-0.279,-0.0018675022996339319,-0.004991641660703782,-0.00486946861306418,-0.5197282425372519,1.0207367478559375,0.045821234770955024,-2.5050928672413995,3.7866948715297357,24.200000000000003,0x0000,0x4056
16,0.6549077009995017,adis16470,-0.03625,0.01875,0.9725,-0.35549106249999995,0.1838746875,9.536967125,0.7930000000000001,0.014000000000000026,-0.579,0.013840460968315036,0.0002443460952792066,-0.010105456369047167,-0.4554456099395719,1.0435697631315333,0.02213097788565575,1.1045375638716628,2.1343192625453846,24.200000000000003,0x0000,0x4056
17,0.6957642379993558,adis16470,-0.005,-0.0275,0.99625,-0.04903325,-0.269682875,9.769875062499999,-1.807,0.014000000000000026,0.22100000000000003,-0.03153809958353753,0.0002443460952792066,0.003857177646907469,-0.5503111371054004,1.0290078260057558,0.031160268363567424,-1.5811632949923895,0.2874453354949371,24.3,0x0000,0x4056
18,0.7366375719993812,adis16470,-0.02125,-0.00125,1.00125,-0.2083913125,-0.0122583125,9.8189083125,-1.907,0.21400000000000008,-0.179,-0.03328342883553186,0.0037350045992678668,-0.00312413936106985,-0.6171216420737499,1.041316214699485,0.023843981494547747,-0.0715302743396037,1.2158318187450545,24.200000000000003,0x0000,0x4056
19,0.7774886090001019,adis16470,-0.0275,0.0025,1.00375,-0.269682875,0.024516625,9.843424937499998,-2.107,0.21400000000000008,-0.37900000000000006,-0.03677408733952053,0.0037350045992678668,-0.00661479786505851,-0.6862769168735835,1.0604441804204414,0.008361417247499059,0.142704012546829,1.569349939547955,24.1,0x0000,0x4056
20,0.8183596829994713,adis16470,-0.01125,0.01125,0.99625,-0.1103248125,0.1103248125,9.769875062499999,-3.507,0.8140000000000001,0.021000000000000005,-0.06120869686744114,0.014206980111233844,0.00036651914291880927,-0.8000798232053294,1.0847776269214109,0.009219708646488481,0.6469762844695571,0.6469350416550009,24.3,0x0000,0x4056
21,0.859244626999498,adis16470,-0.10625,-0.0825,1.0225,-1.0419565625,-0.809048625,10.027299625,-6.407,0.5140000000000001,2.221,-0.1118232451752767,0.008970992355250855,0.03876376268679406,-1.1330483438783476,1.2019436895162094,0.1000256623333935,-4.612894187190319,5.913346965775069,24.3,0x0000,0x4056
22,0.9001773310001226,adis16470,-0.07125000000000001,-0.00375,0.9975,-0.6987238125,-0.03677493749999999,9.782133375,-9.507000000000001,0.31400000000000006,2.421,-0.16592845198710093,0.005480333851262196,0.042254421190782716,-1.4960607845146487,1.272212427234148,0.1991240510257039,-0.21539665260707627,4.085588006879509,24.1,0x0000,0x4056
23,0.9411174789993311,adis16470,-0.04,-0.0025,0.9975,-0.392266,-0.024516625,9.782133375,-11.907000000000002,0.21400000000000008,-0.679,-0.20781635403496485,0.0037350045992678668,-0.011850785621041499,-1.9467363871016359,1.3012808980780057,0.17132569053362384,-0.14359814423120423,2.2963375774978037,24.3,0x0000,0x4056
24,0.9820013309999922,adis16470,-0.17250000000000001,-0.08375,0.99375,-1.691647125,-0.8213069375000001,9.7453584375,-11.307,0.8140000000000001,-4.179,-0.19734437852299885,0.014206980111233844,-0.07293730944084303,-2.4571737862808907,1.5041379335352267,0.0004730007624520749,-4.817317329819031,9.81344820474787,24.3,0x0000,0x4056
25,1.0229043859999365,adis16470,-0.00875,-0.0675,0.99,-0.08580818750000001,-0.661948875,9.7085835,-8.407,0.5140000000000001,-2.6790000000000003,-0.14672983021516328,0.008970992355250855,-0.046757370660928096,-2.823034275983497,1.5047631543166549,-0.10910613623773865,-3.90049374238189,0.505216014604845,23.900000000000002,0x0000,0x4056
26,1.063764015999368,adis16470,-0.04875,-0.12375,0.9875,-0.47807418749999997,-1.2135729375,9.684066875,-8.207,0.6140000000000001,-3.2790000000000004,-0.14323917171117465,0.010716321607245186,-0.057229346172894074,-3.238059682194556,1.5553406339439355,-0.24308504335344067,-7.142868281495351,2.8043326527642467,24.3,0x0000,0x4056
27,1.1046446079999441,adis16470,-0.00875,-0.0575,1.0025,-0.08580818750000001,-0.563882375,9.831166624999998,-8.907,-0.286,-2.579,-0.15545647647513494,-0.004991641660703782,-0.045012041408933764,-3.5957928720184484,1.5227609173433436,-0.34851594827590826,-3.28269496358826,0.4992546494294424,24.1,0x0000,0x4056
28,1.1454859049999868,adis16470,-0.0425,-0.06375,1.00125,-0.416782625,-0.6251739374999999,9.8189083125,-7.007,0.6140000000000001,-0.37900000000000006,-0.12229522068724266,0.010716321607245186,-0.00661479786505851,-3.8771901548450636,1.565393959313516,-0.3639947505687561,-3.6431282122060358,2.425665665502043,24.1,0x0000,0x4056
29,1.1863578120000966,adis16470,-0.0225,-0.0825,0.995,-0.220649625,-0.809048625,9.757616749999999,-7.407,-0.08599999999999998,0.12100000000000001,-0.12927653769522,-0.001500983156715123,0.002111848394913139,-4.191127683903979,1.5564610549027116,-0.359049222838753,-4.739813129191658,1.2909838945933942,24.3,0x0000,0x4056
30,1.2272208119993593,adis16470,-0.0225,-0.08,0.99625,-0.220649625,-0.784532,9.769875062499999,-7.407,0.31400000000000006,0.22100000000000003,-0.12927653769522,0.005480333851262196,0.003857177646907469,-4.495744005450193,1.5636988997162866,-0.35001853674562616,-4.591064563487342,1.289637747034635,24.3,0x0000,0x4056
31,1.268086922999828,adis16470,-0.025,-0.09,0.99375,-0.24516625,-0.8825985,9.7453584375,-5.607,0.31400000000000006,0.12100000000000001,-0.09786061115932206,0.005480333851262196,0.002111848394913139,-4.733881060154807,1.5737047798078667,-0.34507374396966417,-5.174933917159096,1.4352277666841262,24.400000000000002,0x0000,0x4056
32,1.3089542379993873,adis16470,-0.0225,-0.0925,0.99875,-0.220649625,-0.9071151249999999,9.7943916875,-4.106999999999999,0.21400000000000008,0.321,-0.0716806723794071,0.0037350045992678668,0.005602506898901798,-4.909516690159989,1.57650243014559,-0.3319553300765748,-5.2913978654389,1.2850524428531078,24.1,0x0000,0x4056
33,1.3498257379997085,adis16470,-0.02875,-0.1,0.9975,-0.2819411875,-0.980665,9.782133375,-3.307,0.014000000000000026,0.7210000000000001,-0.057718038363452476,0.0002443460952792066,0.012583823906879118,-5.058281494801378,1.5783870500885993,-0.30248695189995317,-5.724810452223495,1.6426955529144034,23.900000000000002,0x0000,0x4056
34,1.3906885529995634,adis16470,-0.025,-0.0975,0.99625,-0.24516625,-0.9561483749999999,9.769875062499999,-1.707,0.11400000000000003,0.321,-0.029792770331543206,0.001989675347273536,0.005602506898901798,-5.1372649526108525,1.5799975494224077,-0.28936998828499977,-5.589565950242295,1.4306523321898332,24.3,0x0000,0x4056
35,1.4315572380000958,adis16470,-0.0275,-0.09625,0.99625,-0.269682875,-0.9438900625,9.769875062499999,0.3930000000000001,0.014000000000000026,-0.37900000000000006,0.006859143960337717,0.0002443460952792066,-0.00661479786505851,-5.129146510495986,1.580435096228945,-0.3048591986760813,-5.5183500355246915,1.5738390102551294,23.900000000000002,0x0000,0x4056
36,1.4724545709996164,adis16470,-0.02625,-0.09125,0.99875,-0.25742456249999995,-0.8948568124999999,9.7943916875,1.7930000000000001,-0.08599999999999998,-0.279,0.03129375348825833,-0.001500983156715123,-0.00486946861306418,-5.059105709896763,1.575365666454637,-0.31626976662324263,-5.220290237286651,1.499308171417975,24.200000000000003,0x0000,0x4056
37,1.5133397379995586,adis16470,-0.02625,-0.075,0.9875,-0.25742456249999995,-0.73549875,9.684066875,2.4930000000000003,-0.186,-0.079,0.04351105825221864,-0.003246312408709453,-0.0013788101090755204,-4.944901703032021,1.5667723775717248,-0.3194996464681746,-4.343239951689387,1.5183230565711825,24.200000000000003,0x0000,0x4056
38,1.5542208859997118,adis16470,-0.035,-0.065,0.995,-0.34323275000000003,-0.63743225,9.757616749999999,2.193,0.014000000000000026,-0.279,0.03827507049623565,0.0002443460952792066,-0.00486946861306418,-4.832897187979528,1.576204163806277,-0.33090545579141795,-3.7376295434101032,2.010317297916729,24.3,0x0000,0x4056
39,1.5950824969995665,adis16470,-0.0175,-0.08625000000000001,0.99625,-0.17161637500000002,-0.8458235625,9.769875062499999,1.693,0.014000000000000026,-0.279,0.029548424236264,0.0002443460952792066,-0.00486946861306418,-4.767404700983006,1.5652926470170088,-0.3423058296362889,-4.948024856250061,1.0025972976131792,24.200000000000003,0x0000,0x4056
40,1.6359624219994657,adis16470,-0.02625,-0.0725,1.00375,-0.25742456249999995,-0.7109821249999999,9.843424937499998,0.3930000000000001,0.11400000000000003,-0.279,0.006859143960337717,0.001989675347273536,-0.00486946861306418,-4.738936981302229,1.5684372018500643,-0.35371143222030804,-4.1312505770174655,1.4941630552134018,24.3,0x0000,0x4056
41,1.676838977999978,adis16470,-0.0275,-0.085,0.99375,-0.269682875,-0.83356525,9.7453584375,0.09300000000000008,-0.08599999999999998,0.021000000000000005,0.001623156204354728,-0.001500983156715123,0.00036651914291880927,-4.738210190476757,1.5652108867521708,-0.35285302572030397,-4.888871650529474,1.579375017956219,24.1,0x0000,0x4056
42,1.7177218669994545,adis16470,-0.01625,-0.07625,0.9975,-0.1593580625,-0.7477570625,9.782133375,0.8930000000000001,-0.08599999999999998,-0.279,0.015585790220309365,-0.001500983156715123,-0.00486946861306418,-4.695092898735654,1.5490729302975057,-0.36425931045934085,-4.371251701364379,0.9305929345934744,24.1,0x0000,0x4056
43,1.7585537369996018,adis16470,-0.02375,-0.08875,0.995,-0.2329079375,-0.8703401874999999,9.757616749999999,1.193,-0.08599999999999998,0.22100000000000003,0.020821777976292352,-0.001500983156715123,0.003857177646907469,-4.655394265290791,1.541889133248788,-0.35523548752149525,-5.097064472997684,1.361948190350678,24.1,0x0000,0x4056
44,1.7994234779998806,adis16470,-0.02625,-0.085,0.99875,-0.25742456249999995,-0.83356525,9.7943916875,2.793,-0.386,-0.079,0.04874704600820163,-0.0067369709126981125,-0.0013788101090755204,-4.547710416590684,1.5255937276880878,-0.3584641984825022,-4.864514437760526,1.5001294769414486,24.5,0x0000,0x4056
45,1.8402873109998836,adis16470,-0.02875,-0.08375,0.995,-0.2819411875,-0.8213069375000001,9.757616749999999,4.393000000000001,-0.286,-0.279,0.0766723140401109,-0.004991641660703782,-0.00486946861306418,-4.377057485787088,1.516613375942173,-0.36986521291144997,-4.811293851077582,1.6492421483037132,24.6,0x0000,0x4056
46,1.8811557369999719,adis16470,-0.0225,-0.08,0.995,-0.220649625,-0.784532,9.757616749999999,5.593000000000001,-0.386,0.22100000000000003,0.09761626506404286,-0.0067369709126981125,0.003857177646907469,-4.157446818036361,1.4966463320613208,-0.36083328656637437,-4.596807529709468,1.2912469506360313,24.3,0x0000,0x4056
47,1.922033217999342,adis16470,-0.02875,-0.085,1.0,-0.2819411875,-0.83356525,9.80665,6.493000000000001,-0.386,0.321,0.11332422833199184,-0.0067369709126981125,0.005602506898901798,-3.911357299294448,1.484067954966523,-0.3477115795342235,-4.858462919034287,1.6408862524183117,24.3,0x0000,0x4056
48,1.9629079400001501,adis16470,-0.02125,-0.0625,0.995,-0.2083913125,-0.612915625,9.757616749999999,8.893,-0.486,0.021000000000000005,0.15521213037985573,-0.008482300164692442,0.00036651914291880927,-3.548786084367064,1.4593400012381268,-0.3468532095952243,-3.5942589104717446,1.2210617793718106,24.200000000000003,0x0000,0x4056
49,2.0037540319999607,adis16470,-0.025,-0.05625,0.99875,-0.24516625,-0.5516240625,9.7943916875,9.993,-0.586,0.12100000000000001,0.17441075215179336,-0.01022762941668677,0.002111848394913139,-3.142269534032197,1.4353285281889934,-0.3419108368193112,-3.223515810064036,1.4316200007448416,24.200000000000003,0x0000,0x4056
50,2.0446387729998605,adis16470,-0.01375,-0.03375,0.99625,-0.1348414375,-0.3309744375,9.769875062499999,10.293000000000001,-0.586,-0.179,0.17964673990777635,-0.01022762941668677,-0.00312413936106985,-2.705820734859157,1.3989483212341032,-0.34922918218837656,-1.9402693256913501,0.790278900708967,24.200000000000003,0x0000,0x4056
51,2.085484679999354,adis16470,0.03125,-0.01875,0.99625,0.3064578125,-0.1838746875,9.769875062499999,9.193,-0.586,0.321,0.1604481181358387,-0.01022762941668677,0.005602506898901798,-2.305282739156411,1.3115858953208017,-0.336117669795288,-1.0782123455271078,-1.7963257256610492,23.900000000000002,0x0000,0x4056
52,2.12638986499951,adis16470,-0.0125,-0.02875,1.0,-0.122583125,-0.2819411875,9.80665,5.993000000000001,-0.386,0.5210000000000001,0.10459758207202019,-0.0067369709126981125,0.009093165402890459,-2.051869685665929,1.2841977497409176,-0.31480593347144914,-1.6468000332494968,0.7158641841367526,24.1,0x0000,0x4056
53,2.167220086999805,adis16470,0.00375,-0.0275,0.9925,0.03677493749999999,-0.269682875,9.733100125,4.893000000000001,0.11400000000000003,0.5210000000000001,0.08539896030008255,0.001989675347273536,0.009093165402890459,-1.8467887043455382,1.2587473646084564,-0.2935334263633615,-1.5871344137227474,-0.2163987136110822,24.3,0x0000,0x4056
54,2.20809416100019,adis16470,-0.01625,-0.015,1.0025,-0.1593580625,-0.14709974999999997,9.831166624999998,3.793,-0.286,0.12100000000000001,0.06620033852814493,-0.004991641660703782,0.002111848394913139,-1.6750632066271638,1.240687244346489,-0.28858767454141726,-0.85722949091513,0.9285493352516299,23.900000000000002,0x0000,0x4056
55,2.2489530869997907,adis16470,-0.025,-0.02625,0.99875,-0.24516625,-0.25742456249999995,9.7943916875,2.5930000000000004,0.014000000000000026,0.321,0.04525638750421297,0.0002443460952792066,0.005602506898901798,-1.5678448330750518,1.2451019432259076,-0.27547197727135536,-1.5055499746360614,1.4333930034972933,24.3,0x0000,0x4056
56,2.2898233649993927,adis16470,-0.0225,-0.0025,0.99875,-0.220649625,-0.024516625,9.7943916875,3.0930000000000004,-0.386,0.321,0.05398303376418462,-0.0067369709126981125,0.005602506898901798,-1.4154726582556918,1.230550404837057,-0.2623526061561708,-0.14341842264918372,1.2905461617042504,23.900000000000002,0x0000,0x4056
57,2.3306878650000726,adis16470,-0.00625,-0.02,1.0,-0.0612915625,-0.196133,9.80665,1.993,-0.08599999999999998,0.421,0.03478441199224699,-0.001500983156715123,0.007347836150896127,-1.3302644817009879,1.2096557886775234,-0.24514867523240097,-1.1457628381751035,0.35802236387407577,24.200000000000003,0x0000,0x4056
58,2.371558938999442,adis16470,-0.03125,-0.03125,0.9925,-0.3064578125,-0.3064578125,9.733100125,0.7930000000000001,-0.186,0.021000000000000005,0.013840460968315036,-0.003246312408709453,0.00036651914291880927,-1.307965210040383,1.2140633929535067,-0.24429038307740045,-1.8034274828067132,1.8025347977469162,24.3,0x0000,0x4056
59,2.4124224010001853,adis16470,-0.015,-0.01,1.0050000000000001,-0.14709974999999997,-0.0980665,9.85568325,1.193,0.11400000000000003,0.021000000000000005,0.020821777976292352,0.001989675347273536,0.00036651914291880927,-1.2454325878213646,1.2114484905618725,-0.24343225075339994,-0.5700884449988863,0.8550550751876611,24.6,0x0000,0x4056
60,2.4533410119993277,adis16470,-0.02125,-0.02,1.0025,-0.2083913125,-0.196133,9.831166624999998,1.0930000000000002,0.11400000000000003,0.021000000000000005,0.019076448724298024,0.001989675347273536,0.00036651914291880927,-1.1995524021232467,1.2160724725610856,-0.24257295796939085,-1.1429063330666376,1.21407570997611,23.8,0x0000,0x4056
61,2.494231807999313,adis16470,-0.01625,-0.0175,1.0050000000000001,-0.1593580625,-0.17161637500000002,9.85568325,0.3930000000000001,0.11400000000000003,0.22100000000000003,0.006859143960337717,0.001989675347273536,0.003857177646907469,-1.17976443217538,1.2148434004012254,-0.23353610442946426,-0.9975868849035102,0.9262031909299188,24.3,0x0000,0x4056
62,2.5352477329997782,adis16470,-0.06625,-0.00125,0.9975,-0.6496905625,-0.0122583125,9.782133375,-0.006999999999999923,-0.08599999999999998,1.3210000000000002,-0.00012217304763960173,-0.001500983156715123,0.023055799418845096,-1.157886503965779,1.263085124534149,-0.17935262497268756,-0.07179918486439799,3.7997753166846873,23.900000000000002,0x0000,0x4056
63,2.5762918430000354,adis16470,-0.03,-0.01375,1.0025,-0.29419949999999995,-0.1348414375,9.831166624999998,0.4930000000000001,-0.08599999999999998,0.5210000000000001,0.008604473212332046,-0.001500983156715123,0.009093165402890459,-1.1306146046289836,1.268642478614052,-0.15796845037146537,-0.7858030646533039,1.713914271465099,23.900000000000002,0x0000,0x4056
64,2.6172489900000073,adis16470,-0.025,-0.0175,0.99375,-0.24516625,-0.17161637500000002,9.7453584375,-0.10699999999999996,0.11400000000000003,0.22100000000000003,-0.0018675022996339319,0.001989675347273536,0.003857177646907469,-1.1324745379943426,1.2766627736283231,-0.14891713370753237,-1.0088780001865267,1.440875985505308,23.900000000000002,0x0000,0x4056
65,2.6580166939993433,adis16470,-0.0225,-0.0125,0.9975,-0.220649625,-0.122583125,9.782133375,-0.006999999999999923,0.11400000000000003,0.12100000000000001,-0.00012217304763960173,0.001989675347273536,0.002111848394913139,-1.124463802136743,1.281525323160019,-0.14398431993155386,-0.7179546449064098,1.2920654753981118,23.900000000000002,0x0000,0x4056
66,2.6987685829999464,adis16470,-0.1225,-0.03625,1.0050000000000001,-1.201314625,-0.35549106249999995,9.85568325,3.4930000000000003,-0.886,-0.779,0.06096435077216194,-0.01546361717266976,-0.013596114873035827,-1.003789970105772,1.3594119647375111,-0.17573004146302368,-2.065743266264422,6.945059911106802,24.5,0x0000,0x4056
67,2.739504639000188,adis16470,-0.0025,-0.055,0.99875,-0.024516625,-0.53936575,9.7943916875,0.9930000000000001,-0.186,0.021000000000000005,0.017331119472303695,-0.003246312408709453,0.00036651914291880927,-1.007112831750354,1.3276623829387892,-0.1748745839090417,-3.152028204911106,0.1432014532295915,24.200000000000003,0x0000,0x4056
68,2.7802451580000707,adis16470,-0.02375,-0.00625,1.0025,-0.2329079375,-0.0612915625,9.831166624999998,0.6930000000000001,0.014000000000000026,0.22100000000000003,0.012095131716320704,0.0002443460952792066,0.003857177646907469,-0.9664461540277944,1.3288101154229948,-0.1658709537409087,-0.35720098009881457,1.3571010872606553,24.1,0x0000,0x4056
69,2.8209885099995518,adis16470,-0.0225,-0.01875,0.9975,-0.220649625,-0.1838746875,9.782133375,1.2930000000000001,0.21400000000000008,0.12100000000000001,0.022567107228286684,0.0037350045992678668,0.002111848394913139,-0.9170269062306867,1.3366173877886665,-0.16094100584994078,-1.0768615206026115,1.2919387454033637,24.3,0x0000,0x4056
70,2.86173034300009,adis16470,-0.035,-0.03125,0.99625,-0.34323275000000003,-0.3064578125,9.769875062499999,1.3930000000000002,-0.186,0.6210000000000001,0.024312436480281016,-0.003246312408709453,0.010838494654884788,-0.8790009853338772,1.3426803217376269,-0.13564035053364581,-1.796643630994631,2.011084813985014,23.900000000000002,0x0000,0x4056
71,2.9024752139994234,adis16470,-0.01875,-0.005,1.0025,-0.1838746875,-0.04903325,9.831166624999998,1.8930000000000002,0.014000000000000026,-0.079,0.03303908274025266,0.0002443460952792066,-0.0013788101090755204,-0.791548356137241,1.3378153094170788,-0.13885921288062322,-0.2857621168765344,1.071478571912425,24.200000000000003,0x0000,0x4056
72,2.943222565999349,adis16470,-0.0175,-0.0125,1.0,-0.17161637500000002,-0.122583125,9.80665,0.8930000000000001,0.11400000000000003,0.22100000000000003,0.015585790220309365,0.001989675347273536,0.003857177646907469,-0.7543810955679847,1.3356611889054992,-0.12985408477465366,-0.7161599454704085,1.0024955028428715,24.1,0x0000,0x4056
73,2.984012066000105,adis16470,-0.0275,-0.0175,1.00125,-0.269682875,-0.17161637500000002,9.8189083125,0.9930000000000001,0.014000000000000026,-0.179,0.017331119472303695,0.0002443460952792066,-0.00312413936106985,-0.7196259197294709,1.3409682225198267,-0.1371554251436602,-1.0013224060710668,1.573031196475843,24.1,0x0000,0x4056
74,3.024756121999417,adis16470,-0.01375,-0.01375,1.0,-0.1348414375,-0.1348414375,9.80665,1.493,-0.08599999999999998,0.12100000000000001,0.02605776573227534,-0.001500983156715123,0.002111848394913139,-0.6613743009947436,1.326468795684893,-0.13222537875863338,-0.7877673250543098,0.7876928763640707,24.1,0x0000,0x4056
75,3.0655316029997266,adis16470,-0.02,-0.00625,1.0025,-0.196133,-0.0612915625,9.831166624999998,1.8930000000000002,-0.08599999999999998,-0.279,0.03303908274025266,-0.001500983156715123,-0.00486946861306418,-0.5796468480686575,1.3193605556728991,-0.14360170196646607,-0.35720098009881457,1.1428841284106739,24.3,0x0000,0x4056
76,3.1062977699994008,adis16470,-0.0225,-0.00625,0.99875,-0.220649625,-0.0612915625,9.7943916875,1.3930000000000002,0.21400000000000008,0.22100000000000003,0.024312436480281016,0.0037350045992678668,0.003857177646907469,-0.5195731533116208,1.327333335507059,-0.13459236690436513,-0.3585421253019974,1.2905249434840904,24.1,0x0000,0x4056
77,3.1470438629994533,adis16470,-0.01875,-0.00375,1.00125,-0.1838746875,-0.03677493749999999,9.8189083125,0.7930000000000001,0.014000000000000026,-0.079,0.013840460968315036,0.0002443460952792066,-0.0013788101090755204,-0.4818081128965169,1.3228021395007095,-0.1378113039063793,-0.21458993112939587,1.0728217531214634,24.700000000000003,0x0000,0x4056
78,3.1878102339996985,adis16470,-0.0225,-0.01125,1.0025,-0.220649625,-0.1103248125,9.831166624999998,-0.10699999999999996,0.014000000000000026,0.12100000000000001,-0.0018675022996339319,0.0002443460952792066,0.002111848394913139,-0.48930556855236657,1.322618278756935,-0.132878579791388,-0.6429431061443761,1.2856434102220324,23.900000000000002,0x0000,0x4056
79,3.2285812339996482,adis16470,-0.0275,-0.01,0.9975,-0.269682875,-0.0980665,9.782133375,-0.20699999999999993,0.014000000000000026,-0.079,-0.003612831551628261,0.0002443460952792066,-0.0013788101090755204,-0.49927777166818066,1.328307364204591,-0.13609949605937902,-0.5743745381882245,1.579103582027825,24.0,0x0000,0x4056
80,3.269355381999958,adis16470,-0.0275,-0.0125,1.00125,-0.269682875,-0.122583125,9.8189083125,-0.10699999999999996,-0.08599999999999998,0.021000000000000005,-0.0018675022996339319,-0.001500983156715123,0.00036651914291880927,-0.5078731067485106,1.3297677523137483,-0.13524324010638894,-0.715265956088158,1.5731487975624567,24.200000000000003,0x0000,0x4056
81,3.3101624379996792,adis16470,-0.0175,-0.01,0.99875,-0.17161637500000002,-0.0980665,9.7943916875,-0.006999999999999923,0.014000000000000026,0.021000000000000005,-0.00012217304763960173,0.0002443460952792066,0.00036651914291880927,-0.5094686970541551,1.3238078339655082,-0.1343862868903717,-0.5736557195024539,1.003778029845179,24.3,0x0000,0x4056
82,3.3509458640000958,adis16470,-0.01625,-0.01125,1.0,-0.1593580625,-0.1103248125,9.80665,0.2930000000000001,0.014000000000000026,-0.179,0.005113814708343387,0.0002443460952792066,-0.00312413936106985,-0.5004598192378237,1.3165095354690977,-0.141686493652238,-0.6445503284728616,0.9309155804374933,24.3,0x0000,0x4056
83,3.3916831229998934,adis16470,-0.02375,-0.01125,0.995,-0.2329079375,-0.1103248125,9.757616749999999,0.1930000000000001,-0.186,-0.079,0.0033684854563490576,-0.003246312408709453,-0.0013788101090755204,-0.49570137148356574,1.3100990870502804,-0.1449047313462471,-0.6477889995280104,1.3672658277332872,24.3,0x0000,0x4056
84,3.432429955999396,adis16470,-0.02375,-0.01625,0.99625,-0.2329079375,-0.1593580625,9.769875062499999,0.4930000000000001,0.11400000000000003,0.021000000000000005,0.008604473212332046,0.001989675347273536,0.00036651914291880927,-0.4847905271474809,1.3157584640816296,-0.14404904980624644,-0.9344781528600821,1.3654566489775737,24.5,0x0000,0x4056
85,3.473201585999959,adis16470,-0.02125,-0.01875,1.0,-0.2083913125,-0.1838746875,9.80665,0.09300000000000008,-0.186,0.021000000000000005,0.001623156204354728,-0.003246312408709453,0.00036651914291880927,-0.4928621851099463,1.306354196534968,-0.14319284440024704,-1.0741699983726205,1.2171382329522937,24.200000000000003,0x0000,0x4056
86,3.513947900999483,adis16470,-0.02,-0.01125,1.0,-0.196133,-0.1103248125,9.80665,0.2930000000000001,0.014000000000000026,-0.079,0.005113814708343387,0.0002443460952792066,-0.0013788101090755204,-0.4841960671679113,1.30369995845928,-0.14641179886125621,-0.6445503284728616,1.1456903590764935,24.3,0x0000,0x4056
87,3.5546945119995144,adis16470,-0.01875,-0.0125,0.9975,-0.1838746875,-0.122583125,9.782133375,0.1930000000000001,0.11400000000000003,0.22100000000000003,0.0033684854563490576,0.001989675347273536,0.003857177646907469,-0.48116443531003533,1.3037137043832026,-0.1374068102063194,-0.7179546449064098,1.0767769984269984,24.1,0x0000,0x4056
88,3.5954395489998205,adis16470,-0.02,-0.00875,1.0,-0.196133,-0.08580818750000001,9.80665,0.2930000000000001,0.014000000000000026,0.021000000000000005,0.005113814708343387,0.0002443460952792066,0.00036651914291880927,-0.4698681113033378,1.301112832547566,-0.13655116363130232,-0.5013252767618416,1.1457189911508212,24.3,0x0000,0x4056
89,3.636181883000063,adis16470,-0.02,-0.00875,1.00375,-0.196133,-0.08580818750000001,9.843424937499998,0.09300000000000008,-0.08599999999999998,0.021000000000000005,0.001623156204354728,-0.001500983156715123,0.00036651914291880927,-0.46674653798707044,1.2944856100882036,-0.13569557386130524,-0.4994524255793412,1.1414400567588678,23.900000000000002,0x0000,0x4056
90,3.676894567999625,adis16470,0.058750000000000004,-0.095,0.99375,0.5761406875,-0.93163175,9.7453584375,0.5930000000000001,1.314,1.0210000000000001,0.010349802464326376,0.022933626371205492,0.017819811662862107,-0.5429666348949239,1.2536615389867145,-0.09412799803088195,-5.460737721190326,-3.3680401167958696,23.8,0x0000,0x4056
91,3.717588345999502,adis16470,-0.06875,0.0,1.00375,-0.6742071875,0.0,9.843424937499998,0.1930000000000001,0.31400000000000006,0.6210000000000001,0.0033684854563490576,0.005480333851262196,0.010838494654884788,-0.5244104810261286,1.31947557485445,-0.06885716189295829,0.0,3.9182488640673774,24.1,0x0000,0x4056
92,3.7583284570000615,adis16470,-0.015,-0.025,1.0,-0.14709974999999997,-0.24516625,9.80665,0.8930000000000001,0.11400000000000003,-0.179,0.015585790220309365,0.001989675347273536,-0.00312413936106985,-0.5069108287126656,1.3148196340548077,-0.07614965518699784,-1.4320961841646465,0.859103855875114,23.900000000000002,0x0000,0x4056
93,3.7990705869997328,adis16470,-0.02625,-0.00375,1.00375,-0.25742456249999995,-0.03677493749999999,9.843424937499998,0.3930000000000001,0.014000000000000026,0.321,0.006859143960337717,0.0002443460952792066,0.005602506898901798,-0.4853622620680455,1.3190430911509625,-0.06307140192483177,-0.21405546554562488,1.498043324570192,24.3,0x0000,0x4056
94,3.839811345999806,adis16470,-0.01625,-0.01,1.0,-0.1593580625,-0.0980665,9.80665,0.1930000000000001,0.11400000000000003,0.021000000000000005,0.0033684854563490576,0.001989675347273536,0.00036651914291880927,-0.4794081080221405,1.3158323313248743,-0.06221584869483023,-0.5729386976834859,0.9309279406661437,23.8,0x0000,0x4056
95,3.8805527349995828,adis16470,-0.0225,-0.00625,1.0,-0.220649625,-0.0612915625,9.80665,0.09300000000000008,-0.186,-0.079,0.001623156204354728,-0.003246312408709453,-0.0013788101090755204,-0.4732686565864126,1.3078675956719614,-0.06543441692479256,-0.35809395932357113,1.2889123948548762,24.3,0x0000,0x4056
96,3.9213185680000606,adis16470,-0.01875,-0.01125,0.99875,-0.1838746875,-0.1103248125,9.7943916875,0.2930000000000001,0.11400000000000003,0.12100000000000001,0.005113814708343387,0.001989675347273536,0.002111848394913139,-0.4650048945944282,1.307773530370148,-0.06050173987879871,-0.6453569565684624,1.0754458679455778,24.3,0x0000,0x4056
97,3.9620647349993305,adis16470,-0.0175,-0.01625,1.0,-0.17161637500000002,-0.1593580625,9.80665,0.3930000000000001,0.11400000000000003,0.021000000000000005,0.006859143960337717,0.001989675347273536,0.00036651914291880927,-0.4586313290662078,1.3062190450017563,-0.059646071547801605,-0.9309744777077542,1.002441485905337,24.200000000000003,0x0000,0x4056
98,4.002806587000123,adis16470,-0.025,-0.00375,1.0,-0.24516625,-0.03677493749999999,9.80665,0.8930000000000001,-0.186,0.021000000000000005,0.015585790220309365,-0.003246312408709453,0.00036651914291880927,-0.41810105719866325,1.3013099649809436,-0.058790493033800066,-0.2148581660301822,1.432086119037786,23.8,0x0000,0x4056
99,4.0435618649999014,adis16470,-0.02,-0.01125,0.99625,-0.196133,-0.1103248125,9.769875062499999,0.3930000000000001,0.11400000000000003,0.321,0.006859143960337717,0.001989675347273536,0.005602506898901798,-0.406982052792245,1.3028369747884165,-0.045708031140619915,-0.6469762844695571,1.1500011652134567,24.3,0x0000,0x4056
100,4.084306791000017,adis16470,-0.02125,-0.01125,1.00375,-0.2083913125,-0.1103248125,9.843424937499998,0.4930000000000001,0.014000000000000026,-0.179,0.008604473212332046,0.0002443460952792066,-0.00312413936106985,-0.39199979387883976,1.3015938406612597,-0.05300135964861793,-0.6421424968857137,1.2127292999585755,24.1,0x0000,0x4056
101,4.1250507909999214,adis16470,-0.03125,0.07625,1.0,-0.3064578125,0.7477570625,9.80665,0.1930000000000001,-0.08599999999999998,-1.679,0.0033684854563490576,-0.001500983156715123,-0.029304078140984794,-0.28924616603134046,1.3078227254807693,-0.12141050374703091,4.360365770182427,1.7847332175692645,23.900000000000002,0x0000,0x4056
102,4.165757716999906,adis16470,-0.21875,0.28125,0.96625,-2.1452046874999997,2.7581203125,9.4756755625,-3.807,1.214,-3.7790000000000004,-0.06644468462342412,0.02118829711921116,-0.06595599243286572,-0.11075540890708929,1.5753679621487273,-0.27524212070145326,16.228890875555322,12.263590098399503,24.3,0x0000,0x4056
103,4.206457532000059,adis16470,0.02625,-0.1325,0.9975,0.25742456249999995,-1.299381125,9.782133375,3.193,0.11400000000000003,0.321,0.05572836301617894,0.001989675347273536,0.005602506898901798,-0.13251346705281436,1.518521256012965,-0.2621774919634246,-7.566423482753306,-1.494316304547884,24.400000000000002,0x0000,0x4056
104,4.247151791999386,adis16470,-0.0225,0.0525,1.0025,-0.220649625,0.5148491249999999,9.831166624999998,-1.107,-0.486,0.22100000000000003,-0.019320794819577228,-0.008482300164692442,0.003857177646907469,-0.1140549798156901,1.4944482873369997,-0.2531840647024284,2.997788609365466,1.2839654773882974,24.3,0x0000,0x4056
105,4.287851013999898,adis16470,-0.11,-0.04125,0.99625,-1.0787315,-0.4045243125,9.769875062499999,0.1930000000000001,0.31400000000000006,-0.079,0.0033684854563490576,0.005480333851262196,-0.0013788101090755204,-0.1514958870761825,1.6029910174730808,-0.25639930324046883,-2.370992885299152,6.295386564441172,24.8,0x0000,0x4056
106,4.3286026619998665,adis16470,0.01125,-0.02625,0.9975,0.1103248125,-0.25742456249999995,9.782133375,-0.20699999999999993,0.41400000000000003,0.5210000000000001,-0.003612831551628261,0.007225663103256525,0.009093165402890459,-0.18688159384676337,1.5745461758053967,-0.23516761752435297,-1.5074357587749678,-0.6459419995716276,24.700000000000003,0x0000,0x4056
107,4.369351366000046,adis16470,-0.02375,0.1475,1.00375,-0.2329079375,1.4464808749999998,9.843424937499998,-2.607,1.314,0.5210000000000001,-0.04550073359949217,0.022933626371205492,0.009093165402890459,-0.12005653639954353,1.6223489074884914,-0.2139375812947993,8.359723520494786,1.3410414688352863,24.1,0x0000,0x4056
108,4.410096328999316,adis16470,-0.035,-0.0575,0.995,-0.34323275000000003,-0.563882375,9.757616749999999,0.7930000000000001,0.5140000000000001,0.421,0.013840460968315036,0.008970992355250855,0.007347836150896127,-0.15213859126652335,1.6506508745815218,-0.19678397502667042,-3.3073841699164297,2.0112460092443016,24.1,0x0000,0x4056
109,4.450872309999795,adis16470,-0.00875,0.00375,0.99375,-0.08580818750000001,0.03677493749999999,9.7453584375,-0.20699999999999993,-0.08599999999999998,0.22100000000000003,-0.003612831551628261,-0.001500983156715123,0.003857177646907469,-0.15304352075584696,1.6242907164642693,-0.1877724014556253,0.21620946246236616,0.5044745118337536,24.200000000000003,0x0000,0x4056
110,4.491628457999468,adis16470,-0.0275,-0.01625,0.99875,-0.269682875,-0.1593580625,9.7943916875,-0.40700000000000003,0.11400000000000003,0.22100000000000003,-0.007103490055616922,0.001989675347273536,0.003857177646907469,-0.1848813108273523,1.627898120310488,-0.17876536236266485,-0.9321394468156831,1.5769988256382066,24.1,0x0000,0x4056
111,4.532427549999738,adis16470,-0.0225,-0.00875,1.0025,-0.220649625,-0.08580818750000001,9.831166624999998,-0.507,0.014000000000000026,0.021000000000000005,-0.008848819307611252,0.0002443460952792066,0.00036651914291880927,-0.21145690076817353,1.6216134366275445,-0.17790856975466807,-0.5000751526082065,1.2856753776354166,23.900000000000002,0x0000,0x4056
112,4.5731924020001316,adis16470,-0.02375,-0.00875,1.0025,-0.2329079375,-0.08580818750000001,9.831166624999998,-0.40700000000000003,-0.08599999999999998,0.12100000000000001,-0.007103490055616922,-0.001500983156715123,0.002111848394913139,-0.23348857193887818,1.6128870561452233,-0.17297607203064866,-0.5000751526082065,1.35707577952816,24.1,0x0000,0x4056
113,4.613939512999423,adis16470,-0.01875,-0.01,1.00125,-0.1838746875,-0.0980665,9.8189083125,-0.30699999999999994,0.014000000000000026,0.021000000000000005,-0.005358160803622591,0.0002443460952792066,0.00036651914291880927,-0.25252241795656766,1.6026438798167422,-0.17212038463164311,-0.5722234660023792,1.0727757846869863,23.900000000000002,0x0000,0x4056
114,4.6546845129996655,adis16470,-0.02125,-0.015,1.0,-0.2083913125,-0.14709974999999997,9.80665,-0.40700000000000003,-0.08599999999999998,0.021000000000000005,-0.007103490055616922,-0.001500983156715123,0.00036651914291880927,-0.28091092049785366,1.591501327300868,-0.17126474198365135,-0.8593722436446808,1.2172152120533852,24.3,0x0000,0x4056
115,4.695423956999548,adis16470,-0.01875,-0.0125,0.9975,-0.1838746875,-0.122583125,9.782133375,0.3930000000000001,-0.08599999999999998,-0.279,0.006859143960337717,-0.001500983156715123,-0.00486946861306418,-0.2739613839559478,1.5777733156633738,-0.18263106248370709,-0.7179546449064098,1.0767769984269984,24.1,0x0000,0x4056
116,4.736167827999452,adis16470,-0.0225,-0.01,0.9975,-0.220649625,-0.0980665,9.782133375,-0.30699999999999994,0.014000000000000026,-0.079,-0.005358160803622591,0.0002443460952792066,-0.0013788101090755204,-0.2922278369377854,1.5726188943636668,-0.1858498253696945,-0.5743745381882245,1.292101980554131,24.200000000000003,0x0000,0x4056
117,4.776887104999332,adis16470,-0.0175,-0.01,0.99875,-0.17161637500000002,-0.0980665,9.7943916875,-0.006999999999999923,0.014000000000000026,0.021000000000000005,-0.00012217304763960173,0.0002443460952792066,0.00036651914291880927,-0.2981357290831184,1.5618007460613763,-0.18499471977569568,-0.5736557195024539,1.003778029845179,24.3,0x0000,0x4056
118,4.817591345999972,adis16470,-0.0175,-0.0075,0.99875,-0.17161637500000002,-0.07354987499999999,9.7943916875,-0.006999999999999923,0.11400000000000003,-0.37900000000000006,-0.00012217304763960173,0.001989675347273536,-0.00661479786505851,-0.3010572065500082,1.555188199396416,-0.20042159224661749,-0.43024807932067954,1.0038000365005157,24.200000000000003,0x0000,0x4056
119,4.858333715999834,adis16470,-0.0225,-0.02,1.0025,-0.220649625,-0.196133,9.831166624999998,0.2930000000000001,0.014000000000000026,-0.079,0.005113814708343387,0.0002443460952792066,-0.0013788101090755204,-0.3061954197898541,1.5503527935838142,-0.20364024089866337,-1.1429063330666376,1.2854686305979293,24.200000000000003,0x0000,0x4056
120,4.899096012999507,adis16470,-0.02,-0.01,0.995,-0.196133,-0.0980665,9.757616749999999,0.3930000000000001,0.21400000000000008,-0.079,0.006859143960337717,0.0037350045992678668,-0.0013788101090755204,-0.2958886151916845,1.5509236528370107,-0.20686047405365765,-0.5758175932449805,1.1514607579744127,24.3,0x0000,0x4056
121,4.9398508269996455,adis16470,-0.02,-0.00625,0.9975,-0.196133,-0.0612915625,9.782133375,0.2930000000000001,0.014000000000000026,-0.079,0.005113814708343387,0.0002443460952792066,-0.0013788101090755204,-0.28544835513343536,1.543436557127574,-0.21008009851365853,-0.3589914144593881,1.1486111157251675,23.900000000000002,0x0000,0x4056
122,4.980597011999635,adis16470,-0.02125,-0.00625,0.99625,-0.2083913125,-0.0612915625,9.769875062499999,0.2930000000000001,0.014000000000000026,0.12100000000000001,0.005113814708343387,0.0002443460952792066,0.002111848394913139,-0.2752283757145339,1.5375650417175768,-0.20514981460566753,-0.35944183102329696,1.2219089290997647,23.900000000000002,0x0000,0x4056
123,5.0213886419996925,adis16470,-0.0225,-0.00875,1.0,-0.220649625,-0.08580818750000001,9.80665,-0.20699999999999993,-0.08599999999999998,0.12100000000000001,-0.003612831551628261,-0.001500983156715123,0.002111848394913139,-0.2880253863612689,1.5291535527553344,-0.2002139781286861,-0.5013252767618416,1.2888882375228152,24.1,0x0000,0x4056
124,5.062116622999383,adis16470,-0.02,-0.0125,0.99875,-0.196133,-0.122583125,9.7943916875,-0.30699999999999994,0.11400000000000003,-0.179,-0.005358160803622591,0.001989675347273536,-0.00312413936106985,-0.30885930540854273,1.5260627010102028,-0.20750421709663452,-0.7170561722732931,1.1471066365883689,24.3,0x0000,0x4056
125,5.102883825999925,adis16470,-0.02375,-0.0125,0.9975,-0.2329079375,-0.122583125,9.782133375,0.09300000000000008,0.21400000000000008,0.021000000000000005,0.001623156204354728,0.0037350045992678668,0.00036651914291880927,-0.31332566562063263,1.5313676091910773,-0.2066481003736236,-0.7179546449064098,1.3638204930304607,24.200000000000003,0x0000,0x4056
126,5.143630030000168,adis16470,-0.0175,-0.00625,0.99625,-0.17161637500000002,-0.0612915625,9.769875062499999,0.1930000000000001,0.014000000000000026,0.12100000000000001,0.0033684854563490576,0.0002443460952792066,0.002111848394913139,-0.30654127649236396,1.521425833819559,-0.20171782541964797,-0.35944183102329696,1.0063270338513015,24.3,0x0000,0x4056
127,5.1843714930000715,adis16470,-0.0225,-0.0175,0.9975,-0.220649625,-0.17161637500000002,9.782133375,-0.507,0.21400000000000008,-0.079,-0.008848819307611252,0.0037350045992678668,-0.0013788101090755204,-0.34075490083877835,1.5253809485938854,-0.20493638930469218,-1.0050860052541812,1.291968143440012,24.3,0x0000,0x4056
128,5.225112936999722,adis16470,-0.02375,-0.00625,0.99625,-0.2329079375,-0.0612915625,9.769875062499999,-0.006999999999999923,0.014000000000000026,0.22100000000000003,-0.00012217304763960173,0.0002443460952792066,0.003857177646907469,-0.34140812562482764,1.522744528946864,-0.19593253415872744,-0.35944183102329696,1.365611348006919,24.200000000000003,0x0000,0x4056
129,5.265856566999901,adis16470,-0.0225,-0.015,0.995,-0.220649625,-0.14709974999999997,9.757616749999999,0.09300000000000008,0.21400000000000008,0.021000000000000005,0.001623156204354728,0.0037350045992678668,0.00036651914291880927,-0.348140389657287,1.526739698337671,-0.195076917949733,-0.863690044599587,1.2952653047960003,24.200000000000003,0x0000,0x4056
130,5.306601270000101,adis16470,-0.0225,-0.00875,1.0,-0.220649625,-0.08580818750000001,9.80665,0.4930000000000001,0.014000000000000026,-0.079,0.008604473212332046,0.0002443460952792066,-0.0013788101090755204,-0.3315186911089461,1.5225416864602501,-0.19829574956571208,-0.5013252767618416,1.2888882375228152,24.3,0x0000,0x4056
131,5.347327548000067,adis16470,-0.02125,-0.01125,1.0025,-0.2083913125,-0.1103248125,9.831166624999998,0.2930000000000001,0.11400000000000003,-0.37900000000000006,0.005113814708343387,0.001989675347273536,-0.00661479786505851,-0.32605303623175097,1.5209256081694729,-0.2137310085488754,-0.6429431061443761,1.2142407885969908,24.700000000000003,0x0000,0x4056
132,5.388102528999298,adis16470,-0.0225,-0.01375,0.9975,-0.220649625,-0.1348414375,9.782133375,-0.006999999999999923,-0.08599999999999998,0.021000000000000005,-0.00012217304763960173,-0.001500983156715123,0.00036651914291880927,-0.335606521235221,1.5129114548111062,-0.21287473159587822,-0.7897414295062997,1.292044182152582,24.3,0x0000,0x4056
133,5.428858213999774,adis16470,-0.02625,-0.015,0.9975,-0.25742456249999995,-0.14709974999999997,9.782133375,-0.006999999999999923,0.014000000000000026,-0.279,-0.00012217304763960173,0.0002443460952792066,-0.00486946861306418,-0.3464044897547792,1.5133577027935843,-0.22424557803377515,-0.8615257345672584,1.50726542864325,23.900000000000002,0x0000,0x4056
134,5.469615287999659,adis16470,-0.02,-0.00875,1.0025,-0.196133,-0.08580818750000001,9.831166624999998,0.2930000000000001,-0.08599999999999998,0.12100000000000001,0.005113814708343387,-0.001500983156715123,0.002111848394913139,-0.33777491161479445,1.5025127972870713,-0.2193139699017021,-0.5000751526082065,1.1428628131584793,24.0,0x0000,0x4056
135,5.510371935999501,adis16470,-0.02125,-0.0125,1.00125,-0.2083913125,-0.122583125,9.8189083125,-0.30699999999999994,0.11400000000000003,-0.179,-0.005358160803622591,0.001989675347273536,-0.00312413936106985,-0.35758672737772157,1.5013306165096905,-0.226609380000583,-0.715265956088158,1.2157380555557464,23.900000000000002,0x0000,0x4056
136,5.551116380000167,adis16470,-0.02,-0.01125,0.99875,-0.196133,-0.1103248125,9.7943916875,-0.30699999999999994,0.014000000000000026,0.021000000000000005,-0.005358160803622591,0.0002443460952792066,0.00036651914291880927,-0.3756005276472548,1.4948054929614223,-0.22575374512256635,-0.6453569565684624,1.147123699747736,24.3,0x0000,0x4056
137,5.591847156999393,adis16470,-0.01875,-0.015,1.0,-0.1838746875,-0.14709974999999997,9.80665,-0.40700000000000003,0.31400000000000006,0.22100000000000003,-0.007103490055616922,0.005480333851262196,0.003857177646907469,-0.4015218105644611,1.498924019395755,-0.21675225953866734,-0.8593722436446808,1.07404920294109,24.5,0x0000,0x4056
138,5.632591712999783,adis16470,-0.02125,-0.01125,1.00125,-0.2083913125,-0.1103248125,9.8189083125,-0.006999999999999923,0.11400000000000003,0.12100000000000001,-0.00012217304763960173,0.001989675347273536,0.002111848394913139,-0.4066457962839792,1.497812641669017,-0.2118221683836738,-0.6437457141753808,1.215756048829157,23.900000000000002,0x0000,0x4056
139,5.673390859999927,adis16470,-0.02125,-0.01,0.99875,-0.2083913125,-0.0980665,9.7943916875,0.09300000000000008,0.014000000000000026,-0.279,0.001623156204354728,0.0002443460952792066,-0.00486946861306418,-0.406267548642598,1.492792438150991,-0.223205166666584,-0.5736557195024539,1.2188141617459403,24.400000000000002,0x0000,0x4056
140,5.714118266999321,adis16470,-0.02125,-0.005,0.9975,-0.2083913125,-0.04903325,9.782133375,-0.006999999999999923,0.014000000000000026,0.021000000000000005,-0.00012217304763960173,0.0002443460952792066,0.00036651914291880927,-0.4041654771180911,1.4879031060921901,-0.22234989189657894,-0.28719448450717,1.2203868593907847,23.900000000000002,0x0000,0x4056
141,5.754882710999482,adis16470,-0.02,-0.01125,0.99875,-0.196133,-0.1103248125,9.7943916875,-0.507,-0.08599999999999998,0.021000000000000005,-0.008848819307611252,-0.001500983156715123,0.00036651914291880927,-0.4292436113284386,1.4776518765502413,-0.221493835065584,-0.6453569565684624,1.147123699747736,24.3,0x0000,0x4056
142,5.795630007,adis16470,-0.01875,-0.01125,1.0,-0.1838746875,-0.1103248125,9.80665,-0.20699999999999993,-0.08599999999999998,0.021000000000000005,-0.003612831551628261,-0.001500983156715123,0.00036651914291880927,-0.4418157121146606,1.4661467103043293,-0.22063814495757847,-0.6445503284728616,1.0741020459277513,24.1,0x0000,0x4056
143,5.836366155000178,adis16470,-0.02,-0.01,0.99625,-0.196133,-0.0980665,9.769875062499999,0.09300000000000008,-0.08599999999999998,0.021000000000000005,0.001623156204354728,-0.001500983156715123,0.00036651914291880927,-0.44076861867025857,1.4563908738614717,-0.21978268818057872,-0.5750951605035052,1.1500165480794005,24.3,0x0000,0x4056
144,5.8771092289998705,adis16470,-0.02,-0.01125,1.0,-0.196133,-0.1103248125,9.80665,0.3930000000000001,0.014000000000000026,0.021000000000000005,0.006859143960337717,0.0002443460952792066,0.00036651914291880927,-0.4291524510958646,1.4507358590486887,-0.21892708284958384,-0.6445503284728616,1.1456903590764935,24.400000000000002,0x0000,0x4056
145,5.917871951000052,adis16470,-0.02,-0.00875,0.99875,-0.196133,-0.08580818750000001,9.7943916875,-0.006999999999999923,-0.08599999999999998,-0.179,-0.00012217304763960173,-0.001500983156715123,-0.00312413936106985,-0.4308880930112977,1.441228647595765,-0.22622373932571477,-0.5019526855752704,1.1471524394215875,24.3,0x0000,0x4056
146,5.958619543000168,adis16470,-0.025,-0.00875,1.0025,-0.24516625,-0.08580818750000001,9.831166624999998,-0.10699999999999996,-0.08599999999999998,0.12100000000000001,-0.0018675022996339319,-0.001500983156715123,0.002111848394913139,-0.43654457227798366,1.437539350650551,-0.2212933434927519,-0.5000751526082065,1.428471965955781,24.3,0x0000,0x4056
147,5.999343321000197,adis16470,-0.02,-0.01625,0.99875,-0.196133,-0.1593580625,9.7943916875,-0.006999999999999923,0.014000000000000026,0.22100000000000003,-0.00012217304763960173,0.0002443460952792066,0.003857177646907469,-0.44673583387053606,1.4322881853767573,-0.21229342126280165,-0.9321394468156831,1.147044676781031,24.1,0x0000,0x4056
148,6.04008724599953,adis16470,-0.01875,-0.0075,1.00375,-0.1838746875,-0.07354987499999999,9.843424937499998,0.09300000000000008,-0.08599999999999998,0.021000000000000005,0.001623156204354728,-0.001500983156715123,0.00036651914291880927,-0.44264981835885475,1.4216110863777924,-0.2114377996147979,-0.4281049559032857,1.0701279794612641,24.3,0x0000,0x4056
149,6.0808333199993285,adis16470,-0.02,-0.015,0.9975,-0.196133,-0.14709974999999997,9.782133375,-0.20699999999999993,0.11400000000000003,0.021000000000000005,-0.003612831551628261,0.001989675347273536,0.00036651914291880927,-0.4592930740973477,1.4207010867498084,-0.21058213321579944,-0.8615257345672584,1.1485038428450116,23.900000000000002,0x0000,0x4056
150,6.121580189999804,adis16470,-0.01875,-0.01375,1.0,-0.1838746875,-0.1348414375,9.80665,-0.006999999999999923,-0.08599999999999998,0.12100000000000001,-0.00012217304763960173,-0.001500983156715123,0.002111848394913139,-0.4661420826446902,1.410334288689596,-0.2056517619457419,-0.7877673250543098,1.0740684939211826,24.3,0x0000,0x4056
151,6.162322504999793,adis16470,-0.02125,-0.00875,0.99625,-0.2083913125,-0.08580818750000001,9.769875062499999,-0.006999999999999923,0.11400000000000003,0.021000000000000005,-0.00012217304763960173,0.001989675347273536,0.00036651914291880927,-0.4671629777881724,1.41111705131714,-0.20479617335175146,-0.5032122261169566,1.2218858540653452,24.3,0x0000,0x4056
152,6.203065300999697,adis16470,-0.01875,-0.0175,1.0,-0.1838746875,-0.17161637500000002,9.80665,-0.006999999999999923,0.11400000000000003,0.021000000000000005,-0.00012217304763960173,0.001989675347273536,0.00036651914291880927,-0.47815068951087036,1.4089266011629726,-0.2039405757907508,-1.0025738037600627,1.0740055923826026,24.400000000000002,0x0000,0x4056
153,6.24381478199939,adis16470,-0.02125,-0.01375,0.99875,-0.2083913125,-0.1348414375,9.7943916875,0.09300000000000008,-0.08599999999999998,0.12100000000000001,0.001623156204354728,-0.001500983156715123,0.002111848394913139,-0.48064881910837937,1.4016888875287514,-0.19900987298078793,-0.7887531421549239,1.2187597759906328,24.3,0x0000,0x4056
154,6.284557040999971,adis16470,-0.02125,-0.01125,1.0025,-0.2083913125,-0.1103248125,9.831166624999998,0.3930000000000001,-0.08599999999999998,0.22100000000000003,0.006859143960337717,-0.001500983156715123,0.003857177646907469,-0.46820322390020813,1.3945061663602825,-0.19000582954280448,-0.6429431061443761,1.2142407885969908,24.3,0x0000,0x4056
155,6.325298095999642,adis16470,-0.02125,-0.01375,1.0025,-0.2083913125,-0.1348414375,9.831166624999998,0.2930000000000001,0.014000000000000026,-0.079,0.005113814708343387,0.0002443460952792066,-0.0013788101090755204,-0.4628568712234633,1.3914590695458873,-0.19322436269685037,-0.7858030646533039,1.2142030504041315,23.8,0x0000,0x4056
156,6.366040354999313,adis16470,-0.02375,-0.01625,0.9975,-0.2329079375,-0.1593580625,9.782133375,-0.10699999999999996,0.21400000000000008,0.12100000000000001,-0.0018675022996339319,0.0037350045992678668,0.002111848394913139,-0.4765381156625997,1.3994492915094399,-0.18829454717991317,-0.9333073348720025,1.3637466511069545,24.1,0x0000,0x4056
157,6.406783483999789,adis16470,-0.01375,-0.0125,0.99875,-0.1348414375,-0.122583125,9.7943916875,-0.10699999999999996,0.11400000000000003,0.321,-0.0018675022996339319,0.001989675347273536,0.005602506898901798,-0.4856208013018034,1.3917859556818288,-0.17521600277076066,-0.7170561722732931,0.7886913815322326,23.900000000000002,0x0000,0x4056
158,6.447532075999334,adis16470,-0.01875,-0.00875,0.99875,-0.1838746875,-0.08580818750000001,9.7943916875,0.4930000000000001,0.014000000000000026,-0.079,0.008604473212332046,0.0002443460952792066,-0.0013788101090755204,-0.4662600386322227,1.3860187670715771,-0.17843516207872306,-0.5019526855752704,1.0754728126975615,24.3,0x0000,0x4056
159,6.488287575999493,adis16470,-0.015,-0.015,0.99875,-0.14709974999999997,-0.14709974999999997,9.7943916875,0.1930000000000001,0.11400000000000003,-0.079,0.0033684854563490576,0.001989675347273536,-0.0013788101090755204,-0.4664352920209347,1.3800586108006507,-0.18165484800072063,-0.8604476417935275,0.8603506299774188,24.1,0x0000,0x4056
160,6.529036408999673,adis16470,-0.02,-0.0075,0.995,-0.196133,-0.07354987499999999,9.757616749999999,0.09300000000000008,0.21400000000000008,0.12100000000000001,0.001623156204354728,0.0037350045992678668,0.002111848394913139,-0.46203015399790126,1.3840329493670454,-0.1767242728456733,-0.4318695560060455,1.1514861913862773,24.1,0x0000,0x4056
161,6.569769871000062,adis16470,-0.02125,-0.01,0.995,-0.2083913125,-0.0980665,9.757616749999999,0.09300000000000008,0.11400000000000003,-0.279,0.001623156204354728,0.001989675347273536,-0.00486946861306418,-0.4605934449396529,1.3853711616766733,-0.1880889397125813,-0.5758175932449805,1.2234058260722858,24.1,0x0000,0x4056
162,6.610517999999502,adis16470,-0.02,-0.01125,1.00125,-0.196133,-0.1103248125,9.8189083125,-0.10699999999999996,0.014000000000000026,0.12100000000000001,-0.0018675022996339319,0.0002443460952792066,0.002111848394913139,-0.46852933913134404,1.3811080146765446,-0.1831584161035391,-0.6437457141753808,1.144260595176003,24.1,0x0000,0x4056
163,6.651268832999449,adis16470,-0.0225,-0.015,0.99875,-0.220649625,-0.14709974999999997,9.7943916875,-0.006999999999999923,-0.186,0.421,-0.00012217304763960173,-0.003246312408709453,0.007347836150896127,-0.47664725539132646,1.371865900565895,-0.16600234656461474,-0.8604476417935275,1.2904047266684284,24.3,0x0000,0x4056
164,6.69202283300001,adis16470,-0.01875,-0.01875,1.0,-0.1838746875,-0.1838746875,9.80665,-0.20699999999999993,0.11400000000000003,0.321,-0.003612831551628261,0.001989675347273536,0.005602506898901798,-0.49686507034250754,1.3704612469139166,-0.15292030678649574,-1.0741699983726205,1.0739812734169023,24.200000000000003,0x0000,0x4056
165,6.732771739999407,adis16470,-0.0225,-0.015,0.99875,-0.220649625,-0.14709974999999997,9.7943916875,0.1930000000000001,0.014000000000000026,0.22100000000000003,0.0033684854563490576,0.0002443460952792066,0.003857177646907469,-0.49642948049968194,1.36941919100541,-0.14391480651644198,-0.8604476417935275,1.2904047266684284,24.3,0x0000,0x4056
166,6.773515460999988,adis16470,-0.02,-0.01,1.0,-0.196133,-0.0980665,9.80665,0.4930000000000001,-0.186,-0.079,0.008604473212332046,-0.003246312408709453,-0.0013788101090755204,-0.4782747342997941,1.3575181496500894,-0.14713356197643607,-0.5729386976834859,1.1457055695987013,24.200000000000003,0x0000,0x4056
167,6.814259071999913,adis16470,-0.0225,-0.00875,1.00125,-0.220649625,-0.08580818750000001,9.8189083125,-0.006999999999999923,-0.08599999999999998,0.12100000000000001,-0.00012217304763960173,-0.001500983156715123,0.002111848394913139,-0.47900272934276517,1.352679512789164,-0.14220358734447583,-0.5006994343924603,1.2872798032904316,24.1,0x0000,0x4056
168,6.8549773119993915,adis16470,-0.02125,-0.01375,0.9975,-0.2083913125,-0.1348414375,9.782133375,0.09300000000000008,0.014000000000000026,0.021000000000000005,0.001623156204354728,0.0002443460952792066,0.00036651914291880927,-0.4815064462334887,1.350590302141974,-0.1413485050604788,-0.7897414295062997,1.2202862924857714,24.1,0x0000,0x4056
169,6.895694701000139,adis16470,-0.02375,-0.01,1.00125,-0.2329079375,-0.0980665,9.8189083125,0.1930000000000001,-0.08599999999999998,0.021000000000000005,0.0033684854563490576,-0.001500983156715123,0.00036651914291880927,-0.4756194752743772,1.3473218910133575,-0.14049343718248222,-0.5722234660023792,1.3587533665624678,24.3,0x0000,0x4056
170,6.936446867000086,adis16470,-0.0225,-0.00875,0.99875,-0.220649625,-0.08580818750000001,9.7943916875,0.1930000000000001,0.014000000000000026,0.021000000000000005,0.0033684854563490576,0.0002443460952792066,0.00036651914291880927,-0.468438285205841,1.3467445860634328,-0.13963764285148067,-0.5019526855752704,1.2905006953710807,24.1,0x0000,0x4056
171,6.977219254999909,adis16470,-0.01875,-0.005,0.9975,-0.1838746875,-0.04903325,9.782133375,-0.30699999999999994,0.21400000000000008,0.12100000000000001,-0.005358160803622591,0.0037350045992678668,0.002111848394913139,-0.47708025663652887,1.3498974860257462,-0.13470415704145602,-0.28719448450717,1.0768479957169685,24.200000000000003,0x0000,0x4056
172,7.017938735999451,adis16470,-0.01875,-0.015,0.9975,-0.1838746875,-0.14709974999999997,9.782133375,-0.40700000000000003,0.014000000000000026,0.12100000000000001,-0.007103490055616922,0.0002443460952792066,0.002111848394913139,-0.5010104498399116,1.3449930008381972,-0.1297771267024475,-0.8615257345672584,1.0767398149742415,24.5,0x0000,0x4056
173,7.058684736000032,adis16470,-0.02,-0.0075,1.0,-0.196133,-0.07354987499999999,9.80665,-0.10699999999999996,0.014000000000000026,0.021000000000000005,-0.0018675022996339319,0.0002443460952792066,0.00036651914291880927,-0.5038570701988285,1.3415667881516418,-0.12892146110144062,-0.42971028940104355,1.1457306235442093,23.900000000000002,0x0000,0x4056
174,7.09942343900002,adis16470,-0.0225,-0.0125,1.00125,-0.220649625,-0.122583125,9.8189083125,-0.907,0.11400000000000003,0.321,-0.01583013631558857,0.001989675347273536,0.005602506898901798,-0.5442962514651846,1.3450313535955525,-0.11584433743844443,-0.715265956088158,1.2872286653892384,24.3,0x0000,0x4056
175,7.140167845999713,adis16470,-0.02375,-0.0225,0.9975,-0.2329079375,-0.220649625,9.782133375,-0.707,0.014000000000000026,0.021000000000000005,-0.012339477811599909,0.0002443460952792066,0.00036651914291880927,-0.5874838083588226,1.3459613556409735,-0.1149887056684522,-1.2921668862499316,1.363580818046855,24.3,0x0000,0x4056
176,7.180891197999699,adis16470,-0.02375,-0.02375,1.0,-0.2329079375,-0.2329079375,9.80665,-0.30699999999999994,-0.08599999999999998,-0.179,-0.005358160803622591,-0.001500983156715123,-0.00312413936106985,-0.6151965674731915,1.3428126685370811,-0.12227820214443841,-1.3605189959864226,1.3601355934620245,24.400000000000002,0x0000,0x4056
177,7.221589271000084,adis16470,-0.0225,-0.015,1.0,-0.220649625,-0.14709974999999997,9.80665,0.09300000000000008,-0.186,0.021000000000000005,0.001623156204354728,-0.003246312408709453,0.00036651914291880927,-0.6163708686488258,1.3343138430323056,-0.12142354492144408,-0.8593722436446808,1.2887926280778454,24.200000000000003,0x0000,0x4056
178,7.262333697000031,adis16470,-0.0225,-0.02,1.00125,-0.220649625,-0.196133,9.8189083125,0.1930000000000001,0.014000000000000026,0.021000000000000005,0.0033684854563490576,0.0002443460952792066,0.00036651914291880927,-0.6192236927997916,1.3339280263258992,-0.12056791044243277,-1.1443328032452083,1.2870722813976105,24.3,0x0000,0x4056
179,7.303073733000019,adis16470,-0.02,-0.015,1.0,-0.196133,-0.14709974999999997,9.80665,0.3930000000000001,0.014000000000000026,-0.179,0.006859143960337717,0.0002443460952792066,-0.00312413936106985,-0.6083360532841006,1.330721098765398,-0.12786037366446476,-0.8593722436446808,1.1456339959527044,24.1,0x0000,0x4056
180,7.343821714000114,adis16470,-0.02,-0.00875,1.00125,-0.196133,-0.08580818750000001,9.8189083125,0.6930000000000001,-0.08599999999999998,0.12100000000000001,0.012095131716320704,-0.001500983156715123,0.002111848394913139,-0.5785097493148716,1.323558220872247,-0.12292987014154028,-0.5006994343924603,1.1442891201872167,23.900000000000002,0x0000,0x4056
181,7.384587028999704,adis16470,-0.0225,-0.00875,1.0,-0.220649625,-0.08580818750000001,9.80665,0.3930000000000001,0.21400000000000008,0.021000000000000005,0.006859143960337717,0.0037350045992678668,0.00036651914291880927,-0.561265535442416,1.331414216182812,-0.12207378920253291,-0.5013252767618416,1.2888882375228152,24.3,0x0000,0x4056
182,7.425411360999533,adis16470,-0.02125,-0.0175,0.99875,-0.2083913125,-0.17161637500000002,9.7943916875,-0.10699999999999996,0.014000000000000026,0.12100000000000001,-0.0018675022996339319,0.0002443460952792066,0.002111848394913139,-0.5743976347248682,1.329719806739375,-0.1171340405535459,-1.0038283328985853,1.218688226877024,24.200000000000003,0x0000,0x4056
183,7.466214396999931,adis16470,-0.02125,-0.01375,0.99625,-0.2083913125,-0.1348414375,9.769875062499999,-0.006999999999999923,0.21400000000000008,-0.279,-0.00012217304763960173,0.0037350045992678668,-0.00486946861306418,-0.5790042332624987,1.3361189094927701,-0.12851802565955062,-0.7907321964043894,1.2218166368049503,23.900000000000002,0x0000,0x4056
184,7.50697802600007,adis16470,-0.0225,-0.01375,0.9975,-0.220649625,-0.1348414375,9.782133375,0.1930000000000001,0.014000000000000026,-0.279,0.0033684854563490576,0.0002443460952792066,-0.00486946861306418,-0.5755089479919965,1.335796691675165,-0.13989107284951863,-0.7897414295062997,1.292044182152582,24.1,0x0000,0x4056
185,7.547744876999786,adis16470,-0.01875,-0.02,0.9975,-0.1838746875,-0.196133,9.782133375,0.2930000000000001,0.11400000000000003,-0.179,0.005113814708343387,0.001989675347273536,-0.00312413936106985,-0.5752656643460716,1.3351681279620593,-0.1471883293334906,-1.14863365586551,1.076645183564758,24.200000000000003,0x0000,0x4056
186,7.588586097999723,adis16470,-0.0225,-0.00875,1.00125,-0.220649625,-0.08580818750000001,9.8189083125,0.1930000000000001,0.014000000000000026,0.021000000000000005,0.0033684854563490576,0.0002443460952792066,0.00036651914291880927,-0.5660495822197272,1.334770706574232,-0.1463306582534826,-0.5006994343924603,1.2872798032904316,24.3,0x0000,0x4056
187,7.629518912000094,adis16470,-0.02,-0.01875,0.99875,-0.196133,-0.1838746875,9.7943916875,0.1930000000000001,0.014000000000000026,0.12100000000000001,0.0033684854563490576,0.0002443460952792066,0.002111848394913139,-0.5684968362463035,1.3315767788566053,-0.14137778558146075,-1.0755140757742527,1.1469943979407786,24.1,0x0000,0x4056
188,7.670406243999423,adis16470,-0.01875,-0.0125,1.00125,-0.1838746875,-0.122583125,9.8189083125,0.1930000000000001,0.014000000000000026,-0.079,0.0033684854563490576,0.0002443460952792066,-0.0013788101090755204,-0.5636987922623234,1.326961131202965,-0.14460788330845953,-0.715265956088158,1.0727456994565951,24.3,0x0000,0x4056
189,7.711292575999323,adis16470,-0.0225,-0.00875,0.995,-0.220649625,-0.08580818750000001,9.757616749999999,-0.20699999999999993,0.11400000000000003,0.021000000000000005,-0.003612831551628261,0.001989675347273536,0.00036651914291880927,-0.5707958901091232,1.330896968565214,-0.1437492718904643,-0.5038443697106137,1.295362362128679,23.900000000000002,0x0000,0x4056
190,7.752164593000089,adis16470,-0.015,0.0025,0.99875,-0.14709974999999997,0.024516625,9.7943916875,-0.707,-0.08599999999999998,0.321,-0.012339477811599909,-0.001500983156715123,0.005602506898901798,-0.5848300877021892,1.3180432469218601,-0.13062940162044942,0.14341842264918372,0.8604449465777166,24.1,0x0000,0x4056
191,7.793027832000007,adis16470,-0.0275,-0.01375,1.00125,-0.269682875,-0.1348414375,9.8189083125,-2.107,0.11400000000000003,0.12100000000000001,-0.03677408733952053,0.001989675347273536,0.002111848394913139,-0.6732463778394054,1.3277101031031082,-0.1256849294945079,-0.7867839689549122,1.5731230700709689,24.3,0x0000,0x4056
192,7.833882330999586,adis16470,-0.02125,-0.0125,0.99875,-0.2083913125,-0.122583125,9.7943916875,-2.7070000000000003,0.11400000000000003,0.22100000000000003,-0.047246062851486505,0.001989675347273536,0.003857177646907469,-0.7825034950735406,1.330095747385747,-0.11665611394549813,-0.7170561722732931,1.2187798120008158,23.900000000000002,0x0000,0x4056
193,7.8747544600000765,adis16470,-0.0225,-0.0375,0.99625,-0.220649625,-0.367749375,9.769875062499999,-3.807,0.014000000000000026,0.421,-0.06644468462342412,0.0002443460952792066,0.007347836150896127,-0.9624546389596894,1.3299120443187729,-0.09944897121242519,-2.155661575709664,1.2928723519589123,23.900000000000002,0x0000,0x4056
194,7.915642457999638,adis16470,-0.025,-0.045,1.0,-0.24516625,-0.44129925,9.80665,-2.007,0.014000000000000026,0.12100000000000001,-0.035028758087526195,0.0002443460952792066,0.002111848394913139,-1.0751587156415778,1.3324877718472743,-0.09450147638537071,-2.5765718302688305,1.430648987261536,24.1,0x0000,0x4056
195,7.9565374200001315,adis16470,-0.02375,-0.01875,0.9975,-0.2329079375,-0.1838746875,9.782133375,-0.10699999999999996,-0.08599999999999998,-0.079,-0.0018675022996339319,-0.001500983156715123,-0.0013788101090755204,-1.0794809921848436,1.3296651439293905,-0.09773215934435954,-1.0768615206026115,1.3636867302464883,24.200000000000003,0x0000,0x4056
196,7.997417621999375,adis16470,-0.02125,-0.02125,0.99625,-0.2083913125,-0.2083913125,9.769875062499999,0.4930000000000001,0.11400000000000003,-0.179,0.008604473212332046,0.001989675347273536,-0.00312413936106985,-1.062579215335325,1.3320720704519917,-0.1050496990343983,-1.221932966984147,1.2216551755982321,23.900000000000002,0x0000,0x4056
197,8.038288842999464,adis16470,-0.0175,-0.02,1.00125,-0.17161637500000002,-0.196133,9.8189083125,0.1930000000000001,0.014000000000000026,-0.079,0.0033684854563490576,0.0002443460952792066,-0.0013788101090755204,-1.0564838833591619,1.3260138385524298,-0.10827853426234849,-1.1443328032452083,1.0011227417223283,24.6,0x0000,0x4056
198,8.079158434999954,adis16470,-0.01625,-0.0125,1.00125,-0.1593580625,-0.122583125,9.8189083125,-2.2070000000000003,-0.08599999999999998,0.12100000000000001,-0.03851941659151486,-0.001500983156715123,0.002111848394913139,-1.1380544883262296,1.3146438815565165,-0.10333332718236594,-0.715265956088158,0.9297399774761547,24.1,0x0000,0x4056
199,8.120030377999683,adis16470,-0.01625,-0.045,0.9975,-0.1593580625,-0.44129925,9.782133375,-2.2070000000000003,0.11400000000000003,0.12100000000000001,-0.03851941659151486,0.001989675347273536,0.002111848394913139,-1.2553541047326209,1.3115644021729804,-0.09838782195834499,-2.583020668635057,0.9323592331947502,23.8,0x0000,0x4056
200,8.16094159899967,adis16470,-0.0325,-0.045,1.0,-0.318716125,-0.44129925,9.80665,-1.907,0.21400000000000008,0.12100000000000001,-0.03328342883553186,0.0037350045992678668,0.002111848394913139,-1.3582361831001992,1.331104599653888,-0.09343753965433113,-2.5765718302688305,1.8595770841531545,23.900000000000002,0x0000,0x4056
201,8.20182711599955,adis16470,-0.05,-0.03,0.9975,-0.4903325,-0.29419949999999995,9.782133375,-0.907,0.11400000000000003,0.12100000000000001,-0.01583013631558857,0.001989675347273536,0.002111848394913139,-1.4018660699604664,1.3664156702528907,-0.08849041000526647,-1.722662071622803,2.8682724583670405,24.3,0x0000,0x4056
202,8.242688651999742,adis16470,-0.015,-0.0125,1.00125,-0.14709974999999997,-0.122583125,9.8189083125,-2.007,-0.186,1.0210000000000001,-0.035028758087526195,-0.003246312408709453,0.017819811662862107,-1.4685029156046265,1.3488037760207574,-0.04677081952706264,-0.715265956088158,0.8582326605251256,24.200000000000003,0x0000,0x4056
203,8.283618168999965,adis16470,-0.02375,-0.04125,0.99375,-0.2329079375,-0.4045243125,9.7453584375,-2.607,0.014000000000000026,0.921,-0.04550073359949217,0.0002443460952792066,0.016074482410867775,-1.5912416751043492,1.3497471560582082,-0.009074512409111023,-2.37695081440348,1.3678949639053326,23.900000000000002,0x0000,0x4056
204,8.324556574999406,adis16470,-0.0175,-0.025,0.99875,-0.17161637500000002,-0.24516625,9.7943916875,-0.8069999999999999,-0.08599999999999998,1.0210000000000001,-0.014084807063594239,-0.001500983156715123,0.017819811662862107,-1.620471101023926,1.3393722100555683,0.03272354294092277,-1.4338877970318888,1.0035140628263644,24.200000000000003,0x0000,0x4056
205,8.365491091999502,adis16470,-0.015,-0.058750000000000004,1.03875,-0.14709974999999997,-0.5761406875,10.1866576875,-0.30699999999999994,0.11400000000000003,-0.279,-0.005358160803622591,0.001989675347273536,-0.00486946861306418,-1.6651193681340484,1.3336779379022257,0.02130281771984285,-3.237106788068726,0.8259984909728326,24.3,0x0000,0x4056
206,8.406428442000106,adis16470,0.055,-0.00125,0.9975,0.53936575,-0.0122583125,9.782133375,6.893000000000001,0.014000000000000026,-1.2790000000000001,0.12030554533996915,0.0002443460952792066,-0.022322761133007477,-1.356715062453732,1.2444466870935191,-0.031056123275767438,-0.07179918486439799,-3.1559676623634156,24.8,0x0000,0x4056
207,8.447436272999767,adis16470,0.01625,-0.00375,0.9975,0.1593580625,-0.03677493749999999,9.782133375,-1.607,-1.086,-0.37900000000000006,-0.028047441079548877,-0.01895427567665842,-0.00661479786505851,-1.3984704050988916,1.1572478443375651,-0.04659811964951057,-0.21539665260707627,-0.933300740856244,24.3,0x0000,0x4056
208,8.48841360499955,adis16470,-0.0275,0.00875,1.0,-0.269682875,0.08580818750000001,9.80665,-2.007,0.31400000000000006,-0.37900000000000006,-0.035028758087526195,0.005480333851262196,-0.00661479786505851,-1.4410712020836662,1.1782159707426847,-0.062128535299701235,0.5013252767618416,1.575176657485806,24.1,0x0000,0x4056
209,8.529328251000152,adis16470,-0.02,-0.03,0.99875,-0.196133,-0.29419949999999995,9.7943916875,-4.407,0.11400000000000003,0.22100000000000003,-0.0769166601353901,0.001989675347273536,0.003857177646907469,-1.623364712775448,1.1821562278700715,-0.05308639035675531,-1.72050734565659,1.1466794078753832,24.3,0x0000,0x4056
210,8.570241860999886,adis16470,-0.0225,-0.02125,0.9975,-0.220649625,-0.2083913125,9.782133375,-7.207,0.5140000000000001,0.22100000000000003,-0.12578587919123133,0.008970992355250855,0.003857177646907469,-1.904271382268973,1.2049595003022664,-0.04404451945372528,-1.2204021860547185,1.291873874078394,24.3,0x0000,0x4056
211,8.611094081999909,adis16470,-0.02625,-0.03,0.99625,-0.25742456249999995,-0.29419949999999995,9.769875062499999,-10.407000000000002,0.6140000000000001,0.12100000000000001,-0.18163641525504992,0.010716321607245186,0.002111848394913139,-2.3173281039291793,1.2356147411207399,-0.03910140518973019,-1.724822199788008,1.508642733403164,24.1,0x0000,0x4056
212,8.651974635999977,adis16470,-0.01625,-0.01875,0.9975,-0.1593580625,-0.1838746875,9.782133375,-14.407000000000002,0.6140000000000001,-1.579,-0.2514495853348231,0.010716321607245186,-0.027558748888990462,-2.8697040237159075,1.25416387698812,-0.10365162468653777,-1.0768615206026115,0.933142526395415,24.3,0x0000,0x4056
213,8.692818004999936,adis16470,-0.01625,0.00875,1.00125,-0.1593580625,0.08580818750000001,9.8189083125,-19.107,0.31400000000000006,-3.7790000000000004,-0.3334800601785565,0.005480333851262196,-0.06595599243286572,-3.567081272408199,1.260244442111083,-0.2579985045121813,0.5006994343924603,0.929776919323783,24.3,0x0000,0x4056
214,8.733692002999305,adis16470,-0.03375,-0.17250000000000001,0.98375,-0.3309744375,-1.691647125,9.6472919375,-21.207,1.314,0.021000000000000005,-0.3701319744704375,0.022933626371205492,0.00036651914291880927,-4.544132418768601,1.3263818289850726,-0.2571401497561648,-9.94567019846263,1.935398103863902,24.200000000000003,0x0000,0x4056
215,8.7745533719999,adis16470,0.01625,-0.11125,0.9875,0.1593580625,-1.0909898125,9.684066875,-23.507,-0.686,1.6210000000000002,-0.4102745472663071,-0.011972958668681102,0.028291787174828085,-5.523121336198738,1.2536473043915217,-0.19090393058477742,-6.427739055834763,-0.9368315868571825,24.3,0x0000,0x4056
216,8.8154320929998,adis16470,-0.025,-0.13,1.0,-0.24516625,-1.2748645,9.80665,-25.407,1.014,-0.47900000000000004,-0.44343580305419933,0.017697638615222503,-0.00836012711705284,-6.578630703200215,1.297599383735157,-0.21048483794372908,-7.40691212849523,1.420151139972306,24.3,0x0000,0x4056
217,8.85628399899997,adis16470,-0.08750000000000001,-0.15375,0.9825,-0.858081875,-1.5077724375,9.635033625,-20.707,2.1140000000000003,-0.779,-0.36140532821046584,0.03689626038716013,-0.013596114873035827,-7.453938978225959,1.4568484642763715,-0.24230842909361502,-8.894000815085974,5.028373676711044,23.900000000000002,0x0000,0x4056
218,8.897160757000165,adis16470,-0.015,-0.18375,0.9762500000000001,-0.14709974999999997,-1.8019719374999998,9.573742062500001,-17.807,0.014000000000000026,3.421,-0.31079077990263027,0.0002443460952792066,0.05970771371072601,-8.23138572033489,1.44557407827666,-0.10246891339773095,-10.659514743761966,0.8650876829206139,23.900000000000002,0x0000,0x4056
219,8.938022681999428,adis16470,-0.015,-0.18375,0.985,-0.14709974999999997,-1.8019719374999998,9.659550249999999,-19.507,0.5140000000000001,-0.679,-0.3404613771865339,0.008970992355250855,-0.011850785621041499,-9.05925006649605,1.4543988645859878,-0.1302141978177616,-10.566965479209726,0.8576635654619025,24.5,0x0000,0x4056
220,8.978907773000174,adis16470,-0.0225,-0.16125,0.975,-0.220649625,-1.5813223125,9.561483749999999,-19.407,0.6140000000000001,-0.679,-0.3387160479345395,0.010716321607245186,-0.011850785621041499,-9.843471729204227,1.4759976322435264,-0.15797524997577977,-9.39083655639349,1.304265060090114,24.400000000000002,0x0000,0x4056
221,9.019758030999583,adis16470,-0.0075,-0.21,0.9812500000000001,-0.07354987499999999,-2.0593964999999996,9.6227753125,-18.207,1.314,-1.979,-0.3177720969106076,0.022933626371205492,-0.034540065896967787,-10.61708311989474,1.5076458163462056,-0.23881783733528494,-12.07980254989917,0.42822450805504864,24.3,0x0000,0x4056
222,9.060625436999544,adis16470,-0.08125,-0.2225,0.9875,-0.7967903125,-2.181979625,9.684066875,-18.707,1.314,-0.37900000000000006,-0.32649874317057925,0.022933626371205492,-0.00661479786505851,-11.40790865963934,1.6219001064547587,-0.2543065421401981,-12.697640216649825,4.589078665918606,24.3,0x0000,0x4056
223,9.101486749999822,adis16470,-0.04875,-0.26375,0.97,-0.47807418749999997,-2.5865039375,9.5124505,-22.307,-0.286,-1.879,-0.3893305962423751,-0.004991641660703782,-0.032794736644973455,-12.377241878807126,1.633539362987768,-0.33108498496748795,-15.211376705165842,2.7764936397479243,24.200000000000003,0x0000,0x4056
224,9.142358508000143,adis16470,-0.01875,-0.23375,0.97,-0.1838746875,-2.2923044375,9.5124505,-20.507,0.7140000000000001,-1.379,-0.3579146697064772,0.012461650859239514,-0.024068090385001805,-13.222071839657,1.6509990110978576,-0.38744749641028936,-13.548779743114496,1.076573381735304,24.400000000000002,0x0000,0x4056
225,9.183220135999363,adis16470,0.05625,-0.23375,0.98375,0.5516240625,-2.2923044375,9.6472919375,-17.207,0.11400000000000003,-2.4790000000000005,-0.3003188043906643,0.001989675347273536,-0.04326671215693944,-13.913993988286862,1.5588620615974869,-0.488742693818079,-13.366248400639439,-3.1840997639287054,23.8,0x0000,0x4056
226,9.224088171999938,adis16470,-0.0175,-0.2575,0.96375,-0.17161637500000002,-2.5252123749999997,9.451158937499999,-14.707,1.014,0.7210000000000001,-0.2566855730908061,0.017697638615222503,0.012583823906879118,-14.523922686568042,1.5883967723663914,-0.4592768405829849,-14.959165555746836,1.0050284130262335,24.3,0x0000,0x4056
227,9.264953670000068,adis16470,-0.06375,-0.24,0.9675,-0.6251739374999999,-2.3535959999999996,9.487933875,-12.507000000000001,0.8140000000000001,-1.979,-0.2182883295469308,0.014206980111233844,-0.034540065896967787,-15.012961857623273,1.6624134088035214,-0.5401498471492752,-13.93168924180298,3.659263591745355,23.900000000000002,0x0000,0x4056
228,9.30582276199948,adis16470,-0.055,-0.28250000000000003,0.95375,-0.53936575,-2.770378625,9.353092437499999,-13.407000000000002,0.21400000000000008,0.8210000000000001,-0.2339962928148798,0.0037350045992678668,0.014329153158873446,-15.579659868015225,1.70103235914937,-0.5065963841917338,-16.499247741756722,3.164808413827028,24.3,0x0000,0x4056
229,9.346722981999847,adis16470,0.0325,-0.25875,0.95375,0.318716125,-2.5374706874999995,9.353092437499999,-13.007000000000001,1.414,-0.47900000000000004,-0.22701497580690247,0.024678955623199817,-0.00836012711705284,-16.09299598148968,1.6860159052811077,-0.5261877050107779,-15.17884302655618,-1.883619675116118,24.200000000000003,0x0000,0x4056
230,9.387662831999478,adis16470,-0.03125,-0.28250000000000003,0.9525,-0.3064578125,-2.770378625,9.340834124999999,-16.907,0.914,-0.47900000000000004,-0.2950828166346813,0.01595230936322817,-0.00836012711705284,-16.779857121076404,1.7249981293149166,-0.5457978931606013,-16.519720807581294,1.8015949848880521,24.3,0x0000,0x4056
231,9.428571441999338,adis16470,-0.03625,-0.27125,0.9500000000000001,-0.35549106249999995,-2.6600538124999997,9.3163175,-17.506999999999998,0.5140000000000001,-0.679,-0.3055547921466472,0.008970992355250855,-0.011850785621041499,-17.46483361853962,1.75313126531691,-0.5735749018184635,-15.93543834462528,2.1013283608476976,24.1,0x0000,0x4056
232,9.469582273000015,adis16470,0.01875,-0.26375,0.94375,0.1838746875,-2.5865039375,9.2550259375,-19.107,0.5140000000000001,0.22100000000000003,-0.3334800601785565,0.008970992355250855,0.003857177646907469,-18.195741944762975,1.7168029518394223,-0.5645114957914449,-15.614094052087774,-1.0961846085415845,23.8,0x0000,0x4056
233,9.510503696999876,adis16470,-0.01625,-0.325,0.9425,-0.1593580625,-3.18716125,9.242767624999999,-19.207,1.314,-2.579,-0.3352253894305509,0.022933626371205492,-0.045012041408933764,-18.982594318159073,1.753838250363741,-0.670047417595125,-19.025606037568686,0.9338118248363851,24.1,0x0000,0x4056
234,9.551366824999604,adis16470,-0.02,-0.3725,0.93125,-0.196133,-3.6529771249999996,9.132442812499999,-21.607,0.11400000000000003,-0.079,-0.37711329147841477,0.001989675347273536,-0.0013788101090755204,-19.90423890452231,1.7461737316971393,-0.6732755945161035,-21.80140948635181,1.1423516046211661,24.3,0x0000,0x4056
235,9.592313471000125,adis16470,-0.02875,-0.40125,0.94375,-0.2819411875,-3.9349183125,9.2550259375,-23.507,0.6140000000000001,-1.379,-0.4102745472663071,0.010716321607245186,-0.024068090385001805,-20.91010979868886,1.768005967505486,-0.7297411986201797,-23.033526304618224,1.605860819376813,24.3,0x0000,0x4056
236,9.633246524999777,adis16470,-0.08375,-0.38625,0.9225,-0.8213069375000001,-3.7878185624999996,9.046634625,-23.307,1.714,-0.879,-0.40678388876231836,0.02991494337918281,-0.015341444125030157,-21.88123290115955,1.8971395074850965,-0.7657213038623941,-22.719021087030615,4.786884196437516,24.3,0x0000,0x4056
237,9.67417031900004,adis16470,-0.0225,-0.3,0.9275,-0.220649625,-2.941995,9.095667875,-22.307,1.014,-3.9790000000000005,-0.3893305962423751,0.017697638615222503,-0.06944665093685438,-22.69671534856095,1.9263082242853438,-0.9285573746323308,-17.923807821472234,1.3222320420752323,23.900000000000002,0x0000,0x4056
238,9.715123094999399,adis16470,0.005,-0.425,0.9025,0.04903325,-4.16782625,8.850501625,-23.607,2.2140000000000004,1.6210000000000002,-0.41201987651830135,0.03864158963915446,0.028291787174828085,-23.694549817173538,1.9708949503519273,-0.8621726540280743,-25.216408633644708,-0.28717644676757403,24.1,0x0000,0x4056
239,9.75603629699981,adis16470,-0.05375,-0.4475,0.895,-0.5271074375,-4.388475875,8.77695175,-23.107,0.014000000000000026,-0.879,-0.4032932302583297,0.0002443460952792066,-0.015341444125030157,-24.67843230768271,1.9935328233566636,-0.8981353093613571,-26.56505117707799,3.0747221824332946,24.3,0x0000,0x4056
240,9.796937368999352,adis16470,-0.04625,-0.45125,0.8925000000000001,-0.45355756249999996,-4.4252508125,8.752435125,-19.807,-0.386,0.021000000000000005,-0.34569736494251685,-0.0067369709126981125,0.00036651914291880927,-25.51521103373496,1.991146187330381,-0.8972763899573529,-26.821263128371363,2.6478010985822777,24.1,0x0000,0x4056
241,9.837859644999298,adis16470,-0.04125,-0.44375000000000003,0.88125,-0.4045243125,-4.3517009375,8.6421103125,-18.707,0.6140000000000001,-0.279,-0.32649874317057925,0.010716321607245186,-0.00486946861306418,-26.289677761142904,2.023826854942949,-0.9086937256073734,-26.727361733014686,2.393989745856581,24.3,0x0000,0x4056
242,9.878769013999772,adis16470,0.13375,-0.56125,0.8825000000000001,1.3116394375,-5.5039823125,8.654368625,-17.506999999999998,1.514,-0.179,-0.3055547921466472,0.02642428487519415,-0.00312413936106985,-27.11487114336015,1.8982930439753678,-0.9160165225273295,-32.45543582057567,-7.287774376697903,24.1,0x0000,0x4056
243,9.919630993999817,adis16470,0.02125,-0.4625,0.88125,0.2083913125,-4.535575625,8.6421103125,-21.607,-0.486,1.6210000000000002,-0.37711329147841477,-0.008482300164692442,0.028291787174828085,-27.991641976632458,1.8164022438377279,-0.8497799126939135,-27.691508423964915,-1.2231694634785082,24.200000000000003,0x0000,0x4056
244,9.96053265899991,adis16470,-0.00625,-0.42,0.86625,-0.0612915625,-4.118792999999999,8.4950105625,-19.707,-0.786,0.421,-0.3439520356905225,-0.013718287920675431,0.007347836150896127,-28.739070834071228,1.756007576828053,-0.8325601715360171,-25.866356794094518,0.37196844431649506,24.700000000000003,0x0000,0x4056
245,10.00143330499941,adis16470,0.0975,-0.48625,0.835,0.9561483749999999,-4.7684835625,8.18855275,-23.407,-0.486,2.221,-0.40852921801431274,-0.008482300164692442,0.03876376268679406,-29.706774048846835,1.586169700177078,-0.74172028763239,-30.21375477677865,-5.761883106111954,24.3,0x0000,0x4056
246,10.04232834100003,adis16470,0.00125,-0.48875,0.85375,0.0122583125,-4.7930001875,8.372427437499999,-22.407,0.6140000000000001,1.3210000000000002,-0.3910759254943694,0.010716321607245186,0.023055799418845096,-30.606445923696683,1.5775975686776593,-0.6876980441513251,-29.790031626062216,-0.0728026714413341,24.200000000000003,0x0000,0x4056
247,10.08320983900012,adis16470,0.1675,-0.35375,0.82625,1.6426138750000001,-3.4691024374999997,8.1027445625,-23.507,2.5140000000000002,0.6210000000000001,-0.4102745472663071,0.04387757739513745,0.010838494654884788,-31.399651224013727,1.435634021771253,-0.6623106450711511,-23.177664371586296,-10.556605771957154,24.3,0x0000,0x4056
248,10.124091077999765,adis16470,-0.07125000000000001,-0.49875,0.85,-0.6987238125,-4.8910666875,8.3356525,-22.907,0.7140000000000001,-2.579,-0.3998025717543411,0.012461650859239514,-0.045012041408933764,-32.29745437050498,1.5182289148001653,-0.7677434558744007,-30.402906471635255,4.135106351091039,24.3,0x0000,0x4056
249,10.164954687999852,adis16470,-0.025,-0.59,0.8375,-0.24516625,-5.785923499999999,8.213069375,-20.507,0.7140000000000001,-0.37900000000000006,-0.3579146697064772,0.012461650859239514,-0.00661479786505851,-33.17601153458089,1.5444158994112978,-0.7832307496625862,-35.16383829461253,1.3979252153476747,23.900000000000002,0x0000,0x4056
250,10.205833611999878,adis16470,-0.05625,-0.56375,0.8250000000000001,-0.5516240625,-5.528498937499999,8.09048625,-16.407,1.214,0.321,-0.2863561703747097,0.02118829711921116,0.005602506898901798,-33.85669945840651,1.6266021386552618,-0.7701086208368088,-34.34609740006151,3.222005259334734,24.1,0x0000,0x4056
251,10.246684703000028,adis16470,-0.01125,-0.55625,0.81375,-0.1103248125,-5.4549490625,7.9801614375,-16.006999999999998,0.21400000000000008,-1.2790000000000001,-0.2793748533667323,0.0037350045992678668,-0.022322761133007477,-34.50749361211152,1.6157154137823948,-0.8223572378504059,-34.35509595186987,0.6539007675650191,24.200000000000003,0x0000,0x4056
252,10.287560349999694,adis16470,0.3275,-0.53125,0.75625,3.211677875,-5.209782812499999,7.416279062499999,-14.507000000000001,-2.586,0.12100000000000001,-0.2531949145868174,-0.04513421445657336,0.002111848394913139,-35.100211265602745,1.089563506155766,-0.8174112913393746,-35.08724855327616,-19.512370329542303,24.3,0x0000,0x4056
253,10.328420088999337,adis16470,-0.11125,-0.56125,0.805,-1.0909898125,-5.5039823125,7.89435325,-15.207,2.1140000000000003,-1.7790000000000001,-0.2654122193507777,0.03689626038716013,-0.031049407392979126,-35.70482228171081,1.281777240217282,-0.8901007990414009,-34.88440016116292,6.467751420686254,24.400000000000002,0x0000,0x4056
254,10.369343512999876,adis16470,-0.06625,-0.615,0.7987500000000001,-0.6496905625,-6.03108975,7.8330616875,-15.007000000000001,1.214,-0.979,-0.2619215608467891,0.02118829711921116,-0.017086773377024488,-36.344477463673755,1.3800297389889291,-0.9301651581231417,-37.59458240105847,3.7600115104273937,24.1,0x0000,0x4056
255,10.410271826000098,adis16470,-0.03875,-0.62625,0.78625,-0.38000768749999997,-6.1414145625,7.7104785625,-13.307,1.114,-0.179,-0.23225096356288544,0.01944296786721683,-0.00312413936106985,-36.92207497349097,1.441265007595729,-0.9374913062811474,-38.537405337827884,2.207686334955184,24.200000000000003,0x0000,0x4056
256,10.451265767999757,adis16470,-0.04875,-0.6075,0.7875,-0.47807418749999997,-5.957539875,7.722736874999999,-12.307,0.8140000000000001,0.021000000000000005,-0.21479767104294215,0.014206980111233844,0.00036651914291880927,-37.43101120589741,1.5012638441426176,-0.9366304280601453,-37.64762064010765,2.8061121338500485,24.3,0x0000,0x4056
257,10.492205081000066,adis16470,-0.05,-0.64375,0.785,-0.4903325,-6.3130309375,7.698220249999999,-12.707,0.6140000000000001,-0.979,-0.22177898805091947,0.010716321607245186,-0.017086773377024488,-37.97928259132185,1.5522647739355029,-0.9767101241566334,-39.35393469917668,2.819606823307869,24.1,0x0000,0x4056
258,10.533231634000003,adis16470,-0.03125,-0.6075,0.77,-0.3064578125,-5.957539875,7.5511205,-12.607000000000001,0.8140000000000001,0.021000000000000005,-0.22003365879892514,0.014206980111233844,0.00036651914291880927,-38.4920162190735,1.590445982594838,-0.9758485653886374,-38.27206407327687,1.824937920221799,24.700000000000003,0x0000,0x4056
259,10.574165408999761,adis16470,0.1475,-0.505,0.7425,1.4464808749999998,-4.95235825,7.281437625,-14.307,-1.9860000000000002,1.8210000000000002,-0.24970425608282873,-0.03466223894460739,0.031782445678816745,-38.98051830890816,1.2924054551875845,-0.9013086655315411,-34.22097847274048,-9.32817796344412,24.3,0x0000,0x4056
260,10.615054481999323,adis16470,-0.01625,-0.57875,0.76125,-0.1593580625,-5.6755986875,7.465312312499999,-13.007000000000001,1.014,0.12100000000000001,-0.22701497580690247,0.017697638615222503,0.002111848394913139,-39.46699893663016,1.326660126023687,-0.8963611236354891,-37.24437453256685,0.9735392726353951,24.3,0x0000,0x4056
261,10.655960534999394,adis16470,-0.0175,-0.66,0.76875,-0.17161637500000002,-6.472389,7.5388621875,-12.807,-0.286,1.3210000000000002,-0.2235243173029138,-0.004991641660703782,0.023055799418845096,-40.00401268375171,1.308452012996201,-0.8423240545714226,-40.64729686676401,0.9895137372260864,24.1,0x0000,0x4056
262,10.6968281999998,adis16470,-0.03375,-0.6587500000000001,0.7525000000000001,-0.3309744375,-6.4601306875,7.379504125,-9.707,0.5140000000000001,0.7210000000000001,-0.16941911049108957,0.008970992355250855,0.012583823906879118,-40.416690185645415,1.3415248710770717,-0.812858361398603,-41.19939859979712,1.9327981788280397,24.1,0x0000,0x4056
263,10.737710864999826,adis16470,-0.05,-0.64625,0.75375,-0.4903325,-6.337547562499999,7.3917624375,-9.407000000000002,0.41400000000000003,-0.179,-0.1641831227351066,0.007225663103256525,-0.00312413936106985,-40.79742724250736,1.3889400477755758,-0.8201762986475888,-40.60911873064655,2.8829447393378813,24.200000000000003,0x0000,0x4056
264,10.77855410399934,adis16470,-0.08375,-0.6275000000000001,0.75125,-0.8213069375000001,-6.153672875,7.367245812499999,-10.507000000000001,1.314,-0.47900000000000004,-0.18338174450704423,0.022933626371205492,-0.00836012711705284,-41.199458592507796,1.511562482341595,-0.8397402015068829,-39.87114831290969,4.890330148730996,24.1,0x0000,0x4056
265,10.819431435999832,adis16470,-0.21625,-0.36625,0.84875,-2.1206880624999997,-3.5916855625,8.3233941875,-13.807,0.21400000000000008,1.1210000000000002,-0.2409776098228571,0.0037350045992678668,0.01956514091485644,-41.39539493619912,1.753238773742564,-0.7939167336346363,-23.3410158085698,13.166737548279087,23.900000000000002,0x0000,0x4056
266,10.860288451999622,adis16470,-0.051250000000000004,-0.685,0.72875,-0.5025908125,-6.71755525,7.146596187499999,-16.107,1.714,-1.179,-0.2811201826187266,0.02991494337918281,-0.020577431881013145,-42.076959349666765,1.8454703843221043,-0.8420871778996889,-43.22748673504139,2.933400361205834,23.900000000000002,0x0000,0x4056
267,10.901165505999415,adis16470,-0.02875,-0.70875,0.7275,-0.2819411875,-6.9504631875,7.134337875,-17.807,0.014000000000000026,0.8210000000000001,-0.31079077990263027,0.0002443460952792066,0.014329153158873446,-42.833801985261445,1.8415499830873243,-0.8085270714102162,-44.25205581071142,1.6214086258087066,24.200000000000003,0x0000,0x4056
268,10.94202061499982,adis16470,-0.01125,-0.7000000000000001,0.71625,-0.1103248125,-6.864655,7.0240130625,-17.707,0.7140000000000001,-0.679,-0.30904545065063593,0.012461650859239514,-0.011850785621041499,-43.572929407444065,1.8461776681829671,-0.8362676157310452,-44.34261919725392,0.643581242864272,24.3,0x0000,0x4056
269,10.982893446999697,adis16470,-0.06,-0.75,0.70125,-0.5883989999999999,-7.3549875,6.8769133125,-18.807,0.914,0.321,-0.32824407242257353,0.01595230936322817,0.005602506898901798,-44.39327141513144,1.9127511940860653,-0.8231474308811457,-46.923940984551244,3.3443225032518993,24.3,0x0000,0x4056
270,11.023754871000165,adis16470,-0.09375,-0.6975,0.70625,-0.9193734375,-6.8401383749999995,6.9259465625,-16.107,1.314,-0.47900000000000004,-0.2811201826187266,0.022933626371205492,-0.00836012711705284,-45.04325568079254,2.035022460101159,-0.8427200707004003,-44.642862633743945,5.395408466860534,24.5,0x0000,0x4056
271,11.064625998999873,adis16470,-0.03625,-0.7025,0.7000000000000001,-0.35549106249999995,-6.8891716249999995,6.864655,-16.807,0.11400000000000003,-0.779,-0.29333748738268695,0.001989675347273536,-0.013596114873035827,-45.717615213201334,2.040755796885934,-0.8745586505891233,-45.10213140611229,2.093383385015892,23.900000000000002,0x0000,0x4056
272,11.105486830999325,adis16470,-0.14250000000000002,-0.7275,0.6775,-1.397447625,-7.134337875,6.644005375,-16.506999999999998,2.5140000000000002,-1.2790000000000001,-0.28810149962670395,0.04387757739513745,-0.022322761133007477,-46.405025563606785,2.26375877521822,-0.9268196534380185,-47.03813560500739,8.15742238594431,24.1,0x0000,0x4056
273,11.146357272999921,adis16470,-0.05375,-0.72875,0.67625,-0.5271074375,-7.146596187499999,6.6317470625,-12.807,1.014,-0.37900000000000006,-0.2235243173029138,0.017697638615222503,-0.00661479786505851,-46.9326832584409,2.3209907528658573,-0.9423095513350681,-47.1399498936819,3.094668826695609,24.8,0x0000,0x4056
274,11.187216919999628,adis16470,-0.03375,-0.7825,0.6587500000000001,-0.3309744375,-7.673703624999999,6.4601306875,-11.807,0.31400000000000006,0.22100000000000003,-0.20607102478297049,0.005480333851262196,0.003857177646907469,-47.464961608102094,2.324940582504641,-0.9332795735469881,-49.90754897928669,1.8898159983914644,24.200000000000003,0x0000,0x4056
275,11.228088973999547,adis16470,-0.01375,-0.7262500000000001,0.6637500000000001,-0.1348414375,-7.122079562500001,6.5091639375,-9.407000000000002,-0.186,-0.079,-0.1641831227351066,-0.003246312408709453,-0.0013788101090755204,-47.843946078434804,2.2870052084789583,-0.9365084628899767,-47.574514992773175,0.8006794441571758,24.200000000000003,0x0000,0x4056
276,11.268952620000164,adis16470,-0.03875,-0.73625,0.65,-0.38000768749999997,-7.2201460625,6.3743225,-10.907000000000002,0.5140000000000001,-0.079,-0.19036306151502155,0.008970992355250855,-0.0013788101090755204,-48.29505837955568,2.307038048007612,-0.9397366938469586,-48.56025180103217,2.2594544648794277,23.900000000000002,0x0000,0x4056
277,11.309817821999786,adis16470,-0.043750000000000004,-0.7212500000000001,0.65,-0.4290409375,-7.0730463125,6.3743225,-12.507000000000001,0.21400000000000008,-0.47900000000000004,-0.2182883295469308,0.0037350045992678668,-0.00836012711705284,-48.78952487648875,2.3210675684886355,-0.9593111433278082,-47.97440756192461,2.5800011759080927,24.3,0x0000,0x4056
278,11.350688986999558,adis16470,-0.0075,-0.76125,0.63125,-0.07354987499999999,-7.465312312499999,6.1904478124999995,-16.707,0.8140000000000001,0.12100000000000001,-0.29159215813069267,0.014206980111233844,0.002111848394913139,-49.48958169600616,2.3159403427708027,-0.9543657391387642,-50.33351856697488,0.4345212290085136,24.200000000000003,0x0000,0x4056
279,11.391597132999777,adis16470,-0.15375,-0.7475,0.6425,-1.5077724375,-7.3304708750000005,6.300772625,-18.607,1.414,0.421,-0.32475341391858487,0.024678955623199817,0.007347836150896127,-50.23214700139583,2.5036246333348386,-0.9371433002126806,-49.31989415365063,8.86577505284282,24.200000000000003,0x0000,0x4056
280,11.432477686999846,adis16470,-0.06,-0.77375,0.62625,-0.5883989999999999,-7.5878954375,6.1414145625,-20.107,0.8140000000000001,-0.579,-0.35093335269849985,0.014206980111233844,-0.010105456369047167,-51.05333481346577,2.55515053459439,-0.9608130975533895,-51.01433183399091,3.44936091093844,24.3,0x0000,0x4056
281,11.47349075799957,adis16470,-0.07,-0.84,0.62625,-0.6864655000000001,-8.237585999999999,6.1414145625,-19.607,1.514,0.12100000000000001,-0.3422067064385282,0.02642428487519415,0.002111848394913139,-51.88623301510543,2.64134559807597,-0.9558503814103051,-53.29415567680922,3.8222255285836195,24.3,0x0000,0x4056
282,11.514438977999816,adis16470,-0.025,-0.79125,0.595,-0.24516625,-7.7595118124999996,5.834956749999999,-20.407,-0.08599999999999998,-0.37900000000000006,-0.35616934045448284,-0.001500983156715123,-0.00661479786505851,-52.72857607885679,2.613998682641338,-0.9713696586292299,-53.05775923664884,1.4465545339975432,24.1,0x0000,0x4056
283,11.55535538299955,adis16470,-0.02,-0.89875,0.5525,-0.196133,-8.813726687499999,5.418174124999999,-21.907,0.6140000000000001,-0.979,-0.38234927923439777,0.010716321607245186,-0.017086773377024488,-53.720803652781825,2.608059644744552,-1.0114262209546176,-58.419182117037835,1.086054209536814,24.1,0x0000,0x4056
284,11.596270065999306,adis16470,-0.05375,-0.79125,0.5750000000000001,-0.5271074375,-7.7595118124999996,5.63882375,-19.807,0.11400000000000003,0.22100000000000003,-0.34569736494251685,0.001989675347273536,0.003857177646907469,-54.520459600766934,2.6233774938521535,-1.0023840802105268,-53.99416030908614,3.145402787018334,24.3,0x0000,0x4056
285,11.637200933999338,adis16470,-0.058750000000000004,-0.7837500000000001,0.56625,-0.5761406875,-7.6859619375,5.5530155625,-20.207,2.7140000000000004,-0.37900000000000006,-0.3526786819504942,0.04736823589912611,-0.00661479786505851,-55.3236439730086,2.7493158210936666,-1.017896851136491,-54.152339049401995,3.4770712850563994,24.6,0x0000,0x4056
286,11.678115635999347,adis16470,0.0125,-0.8075,0.54125,0.122583125,-7.9188698749999995,5.3078493125,-20.707,-0.386,-0.979,-0.36140532821046584,-0.0067369709126981125,-0.017086773377024488,-56.170785731609,2.6641182727859163,-1.0579523620163136,-56.16689765825222,-0.7367005802172913,24.200000000000003,0x0000,0x4056
287,11.719037114999992,adis16470,-0.0475,-0.89,0.5075000000000001,-0.465815875,-8.7279185,4.976874875,-21.507,2.3140000000000005,0.321,-0.3753679622264205,0.040386918891148794,0.005602506898901798,-57.116010335190744,2.756724378201644,-1.0448165492812969,-60.307142701635854,2.6544943760563773,24.1,0x0000,0x4056
288,11.759918205999384,adis16470,-0.0425,-0.8525,0.5225,-0.416782625,-8.360169125,5.123974625,-14.707,0.11400000000000003,0.22100000000000003,-0.2566855730908061,0.001989675347273536,0.003857177646907469,-57.73281716878398,2.7548350137640383,-1.0357818445242584,-58.49573328079582,2.433894795358372,24.200000000000003,0x0000,0x4056
289,11.800799870999981,adis16470,-0.13,-0.83125,0.47625,-1.2748645,-8.1517778125,4.670417062499999,-12.907000000000002,-0.486,-0.179,-0.22526964655490814,-0.008482300164692442,-0.00312413936106985,-58.299069372115234,2.8348210198785995,-1.0430996326662745,-60.19021009567556,7.727687312866234,24.3,0x0000,0x4056
290,11.841679164999732,adis16470,-0.06625,-0.87625,0.50125,-0.6496905625,-8.593077062499999,4.915583312499999,-7.607,1.314,-0.679,-0.13276719619920865,0.022933626371205492,-0.011850785621041499,-58.64241109599575,2.9058612707857043,-1.0708566108241486,-60.22871917512422,3.7547852652737874,24.400000000000002,0x0000,0x4056
291,11.88255282999944,adis16470,-0.03625,-0.83375,0.50375,-0.35549106249999995,-8.1762944375,4.9400999375,-2.907,0.7140000000000001,-0.079,-0.05073672135547516,0.012461650859239514,-0.0013788101090755204,-58.76320049995618,2.918967676355654,-1.0740856288581773,-58.85971653678719,2.131176170314464,24.200000000000003,0x0000,0x4056
292,11.923424216000058,adis16470,-0.05625,-0.86875,0.4975,-0.5516240625,-8.5195271875,4.878808374999999,-5.507,0.11400000000000003,0.12100000000000001,-0.09611528190732772,0.001989675347273536,0.002111848394913139,-59.01255130273217,2.9294727597179233,-1.069140188853182,-60.20187809935117,3.215914176139332,24.3,0x0000,0x4056
293,11.964312954999514,adis16470,-0.06125,-0.8612500000000001,0.4975,-0.6006573125,-8.4459773125,4.878808374999999,-3.9070000000000005,0.5140000000000001,-0.079,-0.06819001387541847,0.008970992355250855,-0.0013788101090755204,-59.18860173598841,2.9619582488156158,-1.072370413849164,-59.987174688255244,3.5239187747442493,24.3,0x0000,0x4056
294,12.005188100999476,adis16470,-0.05,-0.8425,0.50375,-0.4903325,-8.262102624999999,4.9400999375,-3.407,0.014000000000000026,-0.179,-0.05946336761544681,0.0002443460952792066,-0.00312413936106985,-59.32378268099601,2.961598311183248,-1.0796870617611913,-59.12383249263951,2.9159210293891245,24.3,0x0000,0x4056
295,12.04603872899952,adis16470,-0.04,-0.8612500000000001,0.4975,-0.392266,-8.4459773125,4.878808374999999,-4.407,-0.286,-0.079,-0.0769166601353901,-0.004991641660703782,-0.0013788101090755204,-59.51347826272984,2.936976753452908,-1.0829142540261647,-59.987174688255244,2.3029998221515298,24.3,0x0000,0x4056
296,12.086908190000031,adis16470,-0.03375,-0.85375,0.49125,-0.3309744375,-8.372427437499999,4.8175168125,-5.207,0.41400000000000003,-0.079,-0.09087929415134474,0.007225663103256525,-0.0013788101090755204,-59.733434829044604,2.934067193515339,-1.0861429370211801,-60.08376397850321,1.9624220067405103,24.200000000000003,0x0000,0x4056
297,12.127752335999503,adis16470,-0.0475,-0.8612500000000001,0.49125,-0.465815875,-8.4459773125,4.8175168125,-6.407,1.014,-0.179,-0.1118232451752767,0.017697638615222503,-0.00312413936106985,-60.00121971134202,2.9708291026858715,-1.0934540558021537,-60.29991601958475,2.742775793095267,24.3,0x0000,0x4056
298,12.168619241999295,adis16470,-0.06375,-0.8562500000000001,0.48875,-0.6251739374999999,-8.3969440625,4.7930001875,-7.3069999999999995,0.914,0.12100000000000001,-0.12753120844322566,0.01595230936322817,0.002111848394913139,-60.299479700007176,3.0220100125840474,-1.088509173607092,-60.2821492622317,3.699614316701771,23.8,0x0000,0x4056
299,12.209515776999979,adis16470,-0.0725,-0.88375,0.47250000000000003,-0.7109821249999999,-8.6666269375,4.633642125,-9.007000000000001,0.31400000000000006,-0.179,-0.1572018057271293,0.005480333851262196,-0.00312413936106985,-60.6918515742483,3.0569123843000994,-1.095829659995063,-61.86865763593896,4.13789394159715,24.400000000000002,0x0000,0x4056
300,12.250385811999877,adis16470,-0.035,-0.8775000000000001,0.4675,-0.34323275000000003,-8.605335375,4.584608875,-8.107000000000001,0.21400000000000008,0.021000000000000005,-0.1414938424591803,0.0037350045992678668,0.00036651914291880927,-61.04178012049284,3.044667148689189,-1.0949713888820691,-61.9529364227121,2.016087227999658,24.400000000000002,0x0000,0x4056
301,12.29122071799975,adis16470,-0.05,-0.86375,0.47125,-0.4903325,-8.470493937499999,4.6213838124999995,-7.607,0.7140000000000001,0.021000000000000005,-0.13276719619920865,0.012461650859239514,0.00036651914291880927,-61.35303764883646,3.070527648674144,-1.094113855856072,-61.38373117056355,2.909042126625385,24.1,0x0000,0x4056
302,12.332112678999692,adis16470,-0.1,-0.885,0.4925,-0.980665,-8.67888525,4.829775124999999,-8.607000000000001,-0.08599999999999998,0.021000000000000005,-0.15022048871915197,-0.001500983156715123,0.00036651914291880927,-61.688979826486865,3.118447546315653,-1.0932551215670678,-60.90418580528661,5.638841878076417,24.1,0x0000,0x4056
303,12.373072286999559,adis16470,-0.0325,-0.89,0.445,-0.318716125,-8.7279185,4.36395925,-7.107,0.21400000000000008,0.22100000000000003,-0.12404054993923701,0.0037350045992678668,0.003857177646907469,-62.00918037348839,3.102082954690124,-1.0842029456549758,-63.43494882292201,1.870710650042845,24.200000000000003,0x0000,0x4056
304,12.413959507000072,adis16470,-0.03625,-0.89375,0.45125,-0.35549106249999995,-8.7646934375,4.4252508125,-5.3069999999999995,-0.386,0.12100000000000001,-0.09262462340333906,-0.0067369709126981125,0.002111848394913139,-62.24586352465596,3.0660458830051693,-1.0792556435810288,-63.21101335983892,2.0735621921501006,24.3,0x0000,0x4056
305,12.454898283000148,adis16470,-0.0475,-0.88,0.4475,-0.465815875,-8.629852,4.388475875,-5.007,0.11400000000000003,0.021000000000000005,-0.08738863564735608,0.001989675347273536,0.00036651914291880927,-62.462740761375656,3.064390312329675,-1.0783959246440284,-63.045629019666876,2.754582111988376,23.900000000000002,0x0000,0x4056
306,12.495835409999927,adis16470,-0.0575,-0.9175,0.4475,-0.563882375,-8.997601374999999,4.388475875,-5.507,0.31400000000000006,-0.37900000000000006,-0.09611528190732772,0.005480333851262196,-0.00661479786505851,-62.714413392819445,3.08017822790257,-1.0939111590701371,-63.9997301086457,3.2239248854859825,24.8,0x0000,0x4056
307,12.536740388999533,adis16470,-0.0625,-0.89125,0.44875,-0.612915625,-8.7401768125,4.4007341874999995,-3.607,0.7140000000000001,-0.179,-0.06295402611943547,0.012461650859239514,-0.00312413936106985,-62.870206003187235,3.1188768256904877,-1.1012330676131272,-63.2744568630874,3.584022685538415,24.1,0x0000,0x4056
308,12.577642571999604,adis16470,-0.045,-0.905,0.4425,-0.44129925,-8.87501825,4.339442625,-2.7070000000000003,-0.08599999999999998,-0.179,-0.047246062851486505,-0.001500983156715123,-0.00312413936106985,-63.0001831145506,3.104206049920166,-1.1085545682151172,-63.943666016329004,2.5577000681061577,24.3,0x0000,0x4056
309,12.61851301399929,adis16470,-0.04625,-0.89625,0.44,-0.45355756249999996,-8.789210062499999,4.314926,-1.0070000000000001,0.21400000000000008,0.021000000000000005,-0.0175754655675829,0.0037350045992678668,0.00036651914291880927,-63.057552580243936,3.1037372436587036,-1.1076962897101252,-63.85198800532095,2.652198670021002,24.1,0x0000,0x4056
310,12.659368159999758,adis16470,-0.05625,-0.905,0.44625000000000004,-0.5516240625,-8.87501825,4.3762175625,-1.107,0.014000000000000026,-0.079,-0.019320794819577228,0.0002443460952792066,-0.0013788101090755204,-63.11577107652272,3.106037183125103,-1.1109238433211572,-63.7523737166745,3.1907076122043807,23.900000000000002,0x0000,0x4056
311,12.700256324999827,adis16470,-0.0525,-0.90625,0.44625000000000004,-0.5148491249999999,-8.8872765625,4.3762175625,0.4930000000000001,-0.08599999999999998,0.021000000000000005,0.008604473212332046,-0.001500983156715123,0.00036651914291880927,-63.10937549130969,3.0999721861120704,-1.110065190302153,-63.78372900539912,2.9750903716203014,24.1,0x0000,0x4056
312,12.7412805999993,adis16470,-0.055,-0.875,0.40625,-0.53936575,-8.580818749999999,3.9839515624999997,1.5930000000000002,-0.486,0.5210000000000001,0.027803094984269673,-0.008482300164692442,0.009093165402890459,-63.08504689926726,3.0836936597521776,-1.0886911861421744,-65.09523119190482,3.2630142655564476,24.200000000000003,0x0000,0x4056
313,12.78217324599973,adis16470,-0.04625,-0.865,0.44375000000000003,-0.45355756249999996,-8.482752249999999,4.3517009375,1.693,-0.08599999999999998,0.22100000000000003,0.029548424236264,-0.001500983156715123,0.003857177646907469,-63.01233851163798,3.073047390542355,-1.079654030053131,-62.841914204132145,2.7236995465878917,24.3,0x0000,0x4056
314,12.823040039999796,adis16470,-0.0525,-0.87375,0.45125,-0.5148491249999999,-8.5685604375,4.4252508125,-0.8069999999999999,0.31400000000000006,0.22100000000000003,-0.014084807063594239,0.005480333851262196,0.003857177646907469,-63.03812780566468,3.085280306261688,-1.0706225054862284,-62.68581418152948,3.0559192534937702,24.3,0x0000,0x4056
315,12.863896537999608,adis16470,-0.0425,-0.89,0.44375000000000003,-0.416782625,-8.7279185,4.3517009375,-3.2070000000000003,0.11400000000000003,-0.179,-0.05597270911145815,0.001989675347273536,-0.00312413936106985,-63.17575839926658,3.077080548566058,-1.0779357987591607,-63.499362263478105,2.4470686437002946,24.1,0x0000,0x4056
316,12.904786405999403,adis16470,-0.06375,-0.9237500000000001,0.4375,-0.6251739374999999,-9.0588929375,4.290409374999999,-3.9070000000000005,0.21400000000000008,-0.279,-0.06819001387541847,0.0037350045992678668,-0.00486946861306418,-63.361950006409195,3.0954934957527556,-1.0893442217541682,-64.65715695197737,3.56895112107064,24.3,0x0000,0x4056
317,12.945633145000102,adis16470,-0.0625,-0.87625,0.445,-0.612915625,-8.593077062499999,4.36395925,-1.707,0.8140000000000001,-0.279,-0.029792770331543206,0.014206980111233844,-0.00486946861306418,-63.424569903374966,3.1389447199543787,-1.1007403070903514,-63.07644748633068,3.638863810783699,24.1,0x0000,0x4056
318,12.986530123999728,adis16470,-0.043750000000000004,-0.8925000000000001,0.44,-0.4290409375,-8.752435125,4.314926,-3.2070000000000003,0.21400000000000008,-0.179,-0.05597270911145815,0.0037350045992678668,-0.00312413936106985,-63.55974914320761,3.13509274402074,-1.1080608960452958,-63.756831838320736,2.517498460805688,24.200000000000003,0x0000,0x4056
319,13.027374603999306,adis16470,-0.0325,-0.845,0.41375,-0.318716125,-8.28661925,4.0575014375,-3.407,-0.08599999999999998,0.321,-0.05946336761544681,-0.001500983156715123,0.005602506898901798,-63.7031589450273,3.108516075405553,-1.09494984171918,-63.91155156327373,1.9783776401469162,24.8,0x0000,0x4056
320,13.068239545999859,adis16470,-0.07,-0.92625,0.4575,-0.6864655000000001,-9.0834095625,4.486542375,-5.107,0.6140000000000001,0.22100000000000003,-0.08913396489935041,0.010716321607245186,0.003857177646907469,-63.90789830937835,3.148462349009758,-1.0859187098692449,-63.713984504103564,3.876369878524588,24.1,0x0000,0x4056
321,13.109104080999714,adis16470,-0.065,-0.9187500000000001,0.42875,-0.63743225,-9.0098596875,4.2046011875,-4.007,0.11400000000000003,0.021000000000000005,-0.06993534312741279,0.001989675347273536,0.00036651914291880927,-64.0898717815383,3.1634237804195844,-1.085060554634248,-64.98310652189998,3.668264626991908,24.200000000000003,0x0000,0x4056
322,13.149979078999422,adis16470,-0.05625,-0.9225,0.42875,-0.5516240625,-9.046634625,4.2046011875,-2.7070000000000003,-0.08599999999999998,0.12100000000000001,-0.047246062851486505,-0.001500983156715123,0.002111848394913139,-64.21795888747188,3.160009517844114,-1.0801146619682527,-65.07242508734439,3.164958516889886,24.3,0x0000,0x4056
323,13.19083726200006,adis16470,-0.05375,-0.91125,0.4275,-0.5271074375,-8.9363098125,4.192342875,0.3930000000000001,-0.186,-0.47900000000000004,0.006859143960337717,-0.003246312408709453,-0.00836012711705284,-64.21520453933168,3.150496114247916,-1.099685669355345,-64.86704500708666,3.0567196330779884,23.900000000000002,0x0000,0x4056
324,13.231704518999322,adis16470,-0.03375,-0.9075,0.42875,-0.3309744375,-8.899534874999999,4.2046011875,1.7930000000000001,-1.086,0.22100000000000003,0.03129375348825833,-0.01895427567665842,0.003857177646907469,-64.1533214308958,3.08251014736434,-1.0906540055583067,-64.71152371580183,1.9259079840763094,23.8,0x0000,0x4056
325,13.272567534999325,adis16470,-0.05375,-0.91,0.4325,-0.5271074375,-8.9240515,4.2413761249999995,2.8930000000000002,-0.486,-0.079,0.05049237526019596,-0.008482300164692442,-0.0013788101090755204,-64.04599112041386,3.0624712041305697,-1.0938821926702853,-64.57944034265601,3.0536775158613683,24.200000000000003,0x0000,0x4056
326,13.313428773999476,adis16470,-0.05625,-0.89875,0.4375,-0.5516240625,-8.813726687499999,4.290409374999999,4.593000000000001,-0.08599999999999998,0.021000000000000005,0.08016297254409957,-0.001500983156715123,0.00036651914291880927,-63.8620251183439,3.062194976413813,-1.0930241090032764,-64.04377367625081,3.2208486074725426,24.1,0x0000,0x4056
327,13.354362346000016,adis16470,-0.0525,-0.91,0.43125,-0.5148491249999999,-8.9240515,4.2291178125,4.793000000000001,-0.386,0.12100000000000001,0.08365363104808823,-0.0067369709126981125,0.002111848394913139,-63.685386884783604,3.045154205706248,-1.0880711333602981,-64.64367542861824,2.984376121294172,24.3,0x0000,0x4056
328,13.395265379999728,adis16470,-0.04875,-0.89625,0.4425,-0.47807418749999997,-8.789210062499999,4.339442625,7.493000000000001,-0.286,0.021000000000000005,0.13077752085193514,-0.004991641660703782,0.00036651914291880927,-63.38578939389638,3.0286319369157466,-1.0872121696252948,-63.72334796197493,2.7922558986733512,23.900000000000002,0x0000,0x4056
329,13.436176340999737,adis16470,-0.0325,-0.9125,0.455,-0.318716125,-8.948568125,4.46202575,7.793000000000001,-0.886,0.5210000000000001,0.1360135086079181,-0.01546361717266976,0.009093165402890459,-63.075585774165766,2.969049339085208,-1.0658975209114556,-63.49777311738582,1.8256136754514107,24.3,0x0000,0x4056
330,13.477160579000156,adis16470,-0.043750000000000004,-0.89125,0.4625,-0.4290409375,-8.7401768125,4.535575625,9.293,-1.586,0.6210000000000001,0.16219344738783303,-0.02768092193663007,0.010838494654884788,-62.69229440767064,2.8958638787653155,-1.0404460557456154,-62.573662897914,2.4948571023145507,24.3,0x0000,0x4056
331,13.518046428000162,adis16470,-0.043750000000000004,-0.9237500000000001,0.45,-0.4290409375,-9.0588929375,4.4129925,10.693,-1.1860000000000002,-0.179,0.18662805691575365,-0.020699604928652752,-0.00312413936106985,-62.29055005408165,2.839187680340791,-1.0477645233716089,-64.02721271655969,2.438061933052981,24.3,0x0000,0x4056
332,13.558968814999389,adis16470,-0.0675,-0.93125,0.46125,-0.661948875,-9.132442812499999,4.5233173125,13.193,-0.786,0.021000000000000005,0.2302612882156119,-0.013718287920675431,0.00036651914291880927,-61.788658540806686,2.8252077949007894,-1.046905148204602,-63.65069307308407,3.7162874646313333,24.200000000000003,0x0000,0x4056
333,13.59991207099938,adis16470,0.015,-0.8512500000000001,0.4575,0.14709974999999997,-8.3479108125,4.486542375,19.893000000000004,0.31400000000000006,0.921,0.34719834809923206,0.005480333851262196,0.016074482410867775,-60.989581392083295,2.7635177730054634,-1.0091965116597852,-61.74441829520844,-0.8892445288324233,24.6,0x0000,0x4056
334,13.64087329099948,adis16470,-0.01125,-0.6587500000000001,0.41250000000000003,-0.1103248125,-6.4601306875,4.045243125,20.193,-1.086,0.321,0.352434335855215,-0.01895427567665842,0.005602506898901798,-60.11811768336406,2.681238272226925,-0.9960479542618145,-57.945779623797414,0.8292540530056789,24.1,0x0000,0x4056
335,13.681798454999807,adis16470,-0.06875,-0.85375,0.52375,-0.6742071875,-8.372427437499999,5.1362329375,21.693,-1.086,-0.47900000000000004,0.3786142746351299,-0.01895427567665842,-0.00836012711705284,-59.2151602803609,2.6625901214878778,-1.0156511964326878,-58.472133729917964,3.926632256946479,24.200000000000003,0x0000,0x4056
336,13.722675692999474,adis16470,-0.035,-0.80125,0.49375,-0.34323275000000003,-7.857578312499999,4.8420334375,18.393,-1.8860000000000001,-0.879,0.321018409319317,-0.03291690969261306,-0.015341444125030157,-58.461196470888964,2.576380932526136,-1.0515820293301381,-58.35760082457703,2.1297324838501397,23.900000000000002,0x0000,0x4056
337,13.763552968999647,adis16470,-0.11,-0.85375,0.5975,-1.0787315,-8.372427437499999,5.859473375,14.793000000000001,-0.386,1.421,0.2581865562475212,-0.0067369709126981125,0.024801128670839424,-57.799642516865966,2.6299066443741386,-0.9934955537077709,-55.01361028290052,6.02581754527916,24.1,0x0000,0x4056
338,13.804425485000138,adis16470,-0.1,-0.8300000000000001,0.53125,-0.980665,-8.1395195,5.209782812499999,14.293000000000001,0.914,-0.679,0.24945990998754955,0.01595230936322817,-0.011850785621041499,-57.218709032720575,2.729804734449284,-1.0212479798496157,-57.378308391222646,5.794295452713653,24.700000000000003,0x0000,0x4056
339,13.84529240899974,adis16470,-0.04625,-0.8425,0.555,-0.45355756249999996,-8.262102624999999,5.442690750000001,12.193,-1.086,0.22100000000000003,0.2128079956956686,-0.01895427567665842,0.003857177646907469,-56.71850896651646,2.6842103035527485,-1.0122163814686898,-56.62495764049183,2.6247776522586705,24.700000000000003,0x0000,0x4056
340,13.886175906000062,adis16470,-0.03375,-0.84375,0.55875,-0.3309744375,-8.2743609375,5.479465687499999,13.093,-0.586,0.7210000000000001,0.22851595896361757,-0.01022762941668677,0.012583823906879118,-56.189287256279705,2.645249887167734,-0.9827392993796553,-56.486588993922396,1.910121433129403,24.200000000000003,0x0000,0x4056
341,13.927063236999857,adis16470,-0.0525,-0.8575,0.55125,-0.5148491249999999,-8.409202375,5.4059158125,13.293000000000001,-0.486,0.22100000000000003,0.23200661746760626,-0.008482300164692442,0.003857177646907469,-55.67815201357237,2.631834460074275,-0.9737031994495979,-57.264773727892404,2.9481694091209705,24.3,0x0000,0x4056
342,13.967949474999841,adis16470,-0.07875,-0.80375,0.5750000000000001,-0.7722736874999999,-7.882094937499999,5.63882375,16.193,-0.286,0.021000000000000005,0.28262116577544183,-0.004991641660703782,0.00036651914291880927,-55.00416439441733,2.658859389790551,-0.9728445896065956,-54.42019916053971,4.556059914451623,24.1,0x0000,0x4056
343,14.0088183809994,adis16470,-0.05,-0.8075,0.56875,-0.4903325,-7.9188698749999995,5.577532187499999,10.793000000000001,-1.1860000000000002,0.12100000000000001,0.188373386167748,-0.020699604928652752,0.002111848394913139,-54.568638503726795,2.6161415202896205,-0.9678994587565772,-54.841647264421034,2.8980182636528293,24.200000000000003,0x0000,0x4056
344,14.049705266999808,adis16470,-0.04,-0.79625,0.57375,-0.392266,-7.8085450624999995,5.626565437499999,9.193,-0.586,-0.179,0.1604481181358387,-0.01022762941668677,-0.00312413936106985,-54.19340591243892,2.587016291393705,-0.9752182113504874,-54.22479294600902,2.33390612008342,24.200000000000003,0x0000,0x4056
345,14.090541134999512,adis16470,-0.0375,-0.8075,0.59125,-0.367749375,-7.9188698749999995,5.7981818125,7.893000000000001,-1.2860000000000003,0.6210000000000001,0.13775883785991244,-0.022444934180647084,0.010838494654884788,-53.86943697049915,2.5267281719495434,-0.949859194454632,-53.78848103379242,2.1458359080349374,24.1,0x0000,0x4056
346,14.131381243999385,adis16470,-0.0525,-0.7887500000000001,0.595,-0.5148491249999999,-7.7349951875,5.834956749999999,8.493,-0.586,1.3210000000000002,0.1482308133718784,-0.01022762941668677,0.023055799418845096,-53.5115409514658,2.5135736375076383,-0.8959091172032964,-52.97062564690411,3.0416907141956013,24.200000000000003,0x0000,0x4056
347,14.172298944999966,adis16470,-0.04,-0.80375,0.58875,-0.392266,-7.882094937499999,5.7736651875,7.393000000000001,-1.086,0.421,0.12903219159994078,-0.01895427567665842,0.007347836150896127,-53.2203969649176,2.4657357646274507,-0.8786827495054081,-53.77707863862554,2.2990765034161194,24.1,0x0000,0x4056
348,14.213205053999445,adis16470,-0.045,-0.7675000000000001,0.5925,-0.44129925,-7.526603875,5.8104401249999995,6.6930000000000005,-0.486,0.22100000000000003,0.11681488683598049,-0.008482300164692442,0.003857177646907469,-52.93432704063823,2.450083471590303,-0.8696425117923924,-52.33232717469387,2.6572578589137814,24.200000000000003,0x0000,0x4056
349,14.254090274000191,adis16470,-0.04875,-0.78125,0.595,-0.47807418749999997,-7.6614453125,5.834956749999999,2.9930000000000003,-0.186,0.12100000000000001,0.052237704512190286,-0.003246312408709453,0.002111848394913139,-52.80986056384069,2.450468398245887,-0.8646954046493098,-52.70710148409222,2.84195736223771,24.3,0x0000,0x4056
350,14.294986771999902,adis16470,-0.0575,-0.7925,0.595,-0.563882375,-7.771770125,5.834956749999999,0.3930000000000001,0.21400000000000008,-0.279,0.006859143960337717,0.0037350045992678668,-0.00486946861306418,-52.79993631114207,2.4764499434490985,-0.8761055638610993,-53.10119429429154,3.3207036172063678,24.1,0x0000,0x4056
351,14.33592136199968,adis16470,-0.051250000000000004,-0.8025,0.595,-0.5025908125,-7.869836625,5.834956749999999,-0.507,0.21400000000000008,0.021000000000000005,-0.008848819307611252,0.0037350045992678668,0.00036651914291880927,-52.83318727410332,2.4942403707378045,-0.8752459332080822,-53.44554139668532,2.936729068477837,24.3,0x0000,0x4056
352,14.376882580999336,adis16470,-0.0525,-0.8125,0.5962500000000001,-0.5148491249999999,-7.967903124999999,5.8472150625,-0.30699999999999994,0.21400000000000008,-0.079,-0.005358160803622591,0.0037350045992678668,-0.0013788101090755204,-52.86338826801889,2.5125866743291376,-0.8784818563950499,-53.727059849609226,2.982037948550742,24.3,0x0000,0x4056
353,14.417773244999808,adis16470,-0.0525,-0.80875,0.595,-0.5148491249999999,-7.931128187499999,5.834956749999999,0.3930000000000001,0.11400000000000003,0.021000000000000005,0.006859143960337717,0.001989675347273536,0.00036651914291880927,-52.863531166963526,2.5267670531329633,-0.8776231555590454,-53.65796188186699,2.9931911921431977,24.1,0x0000,0x4056
354,14.458773074999954,adis16470,-0.0525,-0.805,0.59375,-0.5148491249999999,-7.89435325,5.8226984375,1.993,0.11400000000000003,0.421,0.03478441199224699,0.001989675347273536,0.007347836150896127,-52.79794822390933,2.5409007324719703,-0.8603620553612688,-53.588344256567844,3.0044236906182844,24.1,0x0000,0x4056
355,14.499647351000021,adis16470,-0.051250000000000004,-0.82875,0.595,-0.5025908125,-8.1272611875,5.834956749999999,3.3930000000000002,-0.386,0.421,0.05921902152016761,-0.0067369709126981125,0.007347836150896127,-52.69254908654909,2.532136677180625,-0.8431540714702848,-54.32359177813802,2.875790146797971,24.3,0x0000,0x4056
356,14.54059916299957,adis16470,-0.05375,-0.8275,0.6012500000000001,-0.5271074375,-8.115002875,5.8962483125,8.293,-0.586,1.1210000000000002,0.14474015486788974,-0.01022762941668677,0.01956514091485644,-52.385845216692026,2.518136844404723,-0.7972472146489851,-53.99836595706114,3.008032180907227,23.8,0x0000,0x4056
357,14.581522585999664,adis16470,-0.0775,-0.8125,0.61625,-0.7600153749999999,-7.967903124999999,6.043348062499999,13.493,-0.286,-0.37900000000000006,0.2354972759715949,-0.004991641660703782,-0.00661479786505851,-51.85341526409543,2.543224232069228,-0.8127571498969488,-52.82108177878313,4.346005521996637,24.1,0x0000,0x4056
358,14.622425175999524,adis16470,-0.02875,-0.77125,2.2600000000000002,-0.2819411875,-7.5633788125,22.163029,16.993000000000002,-1.6860000000000002,1.421,0.29658379979139643,-0.029426251188624398,0.024801128670839424,-50.5120437328756,2.438572571071949,-0.7546343847765171,-18.842774830396845,0.6897784923103725,24.3,0x0000,0x4056
