sample,time_s,sensor,accel_x_g,accel_y_g,accel_z_g,accel_x_mps2,accel_y_mps2,accel_z_mps2,gyro_x_dps,gyro_y_dps,gyro_z_dps,gyro_x_radps,gyro_y_radps,gyro_z_radps,roll_deg,pitch_deg,yaw_deg,accel_roll_deg,accel_pitch_deg,temp_c,diag_stat,prod_id
0,0.0005902059997424658,adis16470,0.065,0.04125,1.025,0.63743225,0.4045243125,10.051816249999998,11.788,-15.124,-2.3450000000000006,0.20573941222509157,-0.2639635960716224,-0.04092797095926704,2.3045621632201754,-3.625605216945036,0.0,2.3045621632201754,-3.625605216945036,24.3,0x0000,0x4056
1,0.03554789800000435,adis16470,0.06,-0.0575,1.02,0.5883989999999999,-0.563882375,10.002782999999999,12.988,-4.924,11.055,0.22668336324902352,-0.0859400123682008,0.19294614880797312,2.638865230382475,-3.788995142685148,0.3864349650126314,-3.2264942438045074,-3.361136545254334,24.3,0x0000,0x4056
2,0.07040604899975733,adis16470,0.07,0.01,1.13125,0.6864655000000001,0.0980665,11.093772812500001,22.888,-11.624,13.655,0.3994709591964622,-0.2028770722518209,0.2383247093598257,3.3780586902041088,-4.181099065318451,0.8624015239480104,0.5064688370090404,-3.540721572982473,24.3,0x0000,0x4056
3,0.10520762399983141,adis16470,0.10125,0.0475,1.07,0.9929233125,0.465815875,10.4931155,9.388,-4.324000000000001,0.35499999999999965,0.16385151017722765,-0.07546803685623482,0.006195918844579863,3.681515695523059,-4.35295476836026,0.8747560301781118,2.541835378908245,-5.400297282172405,24.3,0x0000,0x4056
4,0.14003323599990836,adis16470,0.11750000000000001,0.05,0.95625,1.152281375,0.4903325,9.3776090625,2.7880000000000003,-0.12399999999999989,5.355,0.04865977954560191,-0.002164208272472967,0.09346238144429636,3.762899853502427,-4.410041461286484,1.0612469896581274,2.993132005979067,-6.99568921489539,24.3,0x0000,0x4056
5,0.17485810899961507,adis16470,0.05375,0.058750000000000004,0.9575,0.5271074375,0.5761406875,9.389867375,28.688000000000002,1.2760000000000002,-3.2450000000000006,0.5007000558121333,0.022270401255447648,-0.056635934227216,4.736939377739673,-4.342431870016113,0.9482402800190447,3.511135596898154,-3.2069521946782626,24.3,0x0000,0x4056
6,0.20967607299962765,adis16470,0.0625,0.0375,0.9875,0.612915625,0.367749375,9.684066875,-0.41200000000000003,5.0760000000000005,-0.24500000000000044,-0.007190756518216638,0.08859291283123218,-0.004276056667386115,4.671637393539184,-4.154759905252441,0.9397098923140105,2.174744114610053,-3.6188832299832407,24.6,0x0000,0x4056
7,0.24449640799957706,adis16470,0.08750000000000001,0.0275,1.03,0.858081875,0.269682875,10.100849499999999,12.688,13.076000000000002,1.4549999999999996,0.22144737549304055,0.22821925299077858,0.02539454061651749,5.041756154977159,-3.7225402955602958,0.9903734259038445,1.5293783553328129,-4.853980036324093,24.5,0x0000,0x4056
8,0.27926798199996483,adis16470,0.07,0.0225,0.9725,0.6864655000000001,0.220649625,9.536967125,-5.812,6.5760000000000005,-0.04500000000000037,-0.10143853612591044,0.11477285161114711,-0.0007853981633974548,4.7693779484302015,-3.506323172381074,0.9888087050738474,1.3253728439221797,-4.115919797153613,24.1,0x0000,0x4056
9,0.31410190899987356,adis16470,0.043750000000000004,0.0,1.01375,0.4290409375,0.0,9.941491437499998,-10.812000000000001,-15.424000000000001,2.7549999999999994,-0.18870499872562693,-0.2691995838276054,0.04808382089244377,4.304895513489186,-4.012156980206869,1.0847769398492662,0.0,-2.471157445475915,24.3,0x0000,0x4056
10,0.3489203319995795,adis16470,0.05625,0.00625,1.03375,0.5516240625,0.0612915625,10.1376244375,5.388000000000001,-0.42400000000000015,3.4549999999999996,0.09403834009745449,-0.00740019602845596,0.06030112565640408,4.409574509372844,-4.008672290572201,1.205074076518981,0.34640315240587327,-3.114538037851209,24.5,0x0000,0x4056
11,0.38374960599958285,adis16470,0.08,0.0325,1.00625,0.784532,0.318716125,9.8679415625,4.388,-1.0239999999999998,0.35499999999999965,0.07658504757751118,-0.017872171540421932,0.006195918844579863,4.508155260113662,-4.05431614240821,1.217438462754046,1.8499038402903596,-4.543272083131461,24.400000000000002,0x0000,0x4056
12,0.4185903259999577,adis16470,0.07375,0.00875,1.01375,0.7232404374999999,0.08580818750000001,9.941491437499998,6.688000000000001,0.4760000000000002,0.7549999999999996,0.11672762037338077,0.008307767239493013,0.01317723585255718,4.656238201377144,-4.040192555206159,1.2437433316840336,0.4945258904611815,-4.160765607369256,24.3,0x0000,0x4056
13,0.4534026369997264,adis16470,0.08125,0.02125,0.9925,0.7967903125,0.2083913125,9.733100125,3.188,7.676,0.45499999999999974,0.05564109655357923,0.13397147338308474,0.007941248096574195,4.696405667615157,-3.791094741218351,1.2595828235340534,1.2265484344309554,-4.678956872512186,24.3,0x0000,0x4056
14,0.48822250399962286,adis16470,0.10375000000000001,0.06,1.0525,1.0174399375,0.5883989999999999,10.321499124999999,8.288,6.976,1.8549999999999995,0.14465288840529003,0.12175416861912443,0.032375857624494804,4.950548807945847,-3.589639833378845,1.324173953213469,3.262736346485532,-5.620666498319376,24.1,0x0000,0x4056
15,0.5230907249997472,adis16470,0.07,0.02,1.08375,0.6864655000000001,0.196133,10.627956937499999,3.8880000000000003,8.376000000000001,2.4549999999999996,0.06785840131753954,0.14618877814704506,0.04284783313646078,5.005538880781273,-3.3055321869127914,1.4097753891242675,1.0572415502312569,-3.6950044478576585,24.3,0x0000,0x4056
16,0.5579302219998681,adis16470,0.0725,0.01375,1.0150000000000001,0.7109821249999999,0.1348414375,9.95374975,-2.512,12.876000000000001,-0.4450000000000004,-0.04384267081009756,0.2247285944867899,-0.007766715171374773,4.835184298453322,-2.8815056179722376,1.3942718378793548,0.7761268781676147,-4.085243213245197,24.1,0x0000,0x4056
17,0.5928034989997286,adis16470,0.04625,0.03625,0.97,0.45355756249999996,0.35549106249999995,9.5124505,-13.012000000000002,9.276000000000002,1.7549999999999994,-0.2271022422695022,0.16189674141499405,0.030630528372500476,4.336586368561957,-2.5614170125668903,1.4554748286247783,2.1402122844508917,-2.7279176072905327,24.200000000000003,0x0000,0x4056
18,0.627688071999728,adis16470,0.0275,-0.035,1.02375,0.269682875,-0.34323275000000003,10.039557937499998,-3.612,11.976,3.5549999999999993,-0.06304129258203518,0.20902063121884093,0.062046454908398406,4.087210538426248,-2.131523701979828,1.579489222569325,-1.9580674292340419,-1.537812724314927,24.400000000000002,0x0000,0x4056
19,0.6625548289998733,adis16470,0.085,-0.12125,0.9400000000000001,0.83356525,-1.1890563125,9.218251,-35.512,15.076000000000002,3.7549999999999994,-0.6198013239682263,0.26312583803066514,0.06553711341238706,2.645045157565915,-1.6762505266855199,1.7104136172343938,-7.349961816454423,-5.1247204697699935,24.3,0x0000,0x4056
20,0.6973442509997767,adis16470,0.0625,0.015,1.0150000000000001,0.612915625,0.14709974999999997,9.95374975,-24.312,10.176000000000002,4.155,-0.42432444774486144,0.177604704682943,0.07251843042036439,1.7801964131319563,-1.3662546485323719,1.8549631254940364,0.846674023861505,-3.523232553193241,24.3,0x0000,0x4056
21,0.7321918779998668,adis16470,0.08375,-0.03125,1.02,0.8213069375000001,-0.3064578125,10.002782999999999,-33.112,-0.5239999999999998,-2.2450000000000006,-0.5779134219203624,-0.009145525280450283,-0.03918264170727271,0.5786949880814612,-1.450658804769817,1.7767299514394512,-1.754836485060637,-4.691711913845366,24.700000000000003,0x0000,0x4056
22,0.7670723399996859,adis16470,-0.13875,-0.085,0.925,-1.3606726875000001,-0.83356525,9.07115125,-34.812,15.076000000000002,-4.245,-0.607584019204266,0.26312583803066514,-0.07408922674715929,-0.7278584506424769,-0.7363947131258088,1.6286623138390968,-5.250272729733046,8.495498069848914,24.1,0x0000,0x4056
23,0.801947282999663,adis16470,0.03375,-0.115,0.9925,0.3309744375,-1.12776475,9.733100125,-40.012,2.476,1.4549999999999996,-0.6983411403079711,0.0432143522793796,0.02539454061651749,-2.212996575452045,-0.6757366390232328,1.6794053835494327,-6.609332693012213,-1.9346608977130166,23.900000000000002,0x0000,0x4056
24,0.8368125959996178,adis16470,0.07375,-0.00875,1.04375,0.7232404374999999,-0.08580818750000001,10.2356909375,-72.912,13.776000000000002,6.455,-1.2725544642141056,0.24043655775473888,0.11266100321623397,-4.6695953167477375,-0.2723561520086676,1.9044605012933216,-0.4803126484196562,-4.0415853789147675,24.400000000000002,0x0000,0x4056
25,0.8716741869998259,adis16470,-0.06625,-0.09,0.94875,-0.6496905625,-0.8825985,9.3040591875,-21.012,24.376,9.855,-0.36672858242904854,0.4254414584661378,0.1720021977840412,-5.402444806765519,0.6454145035947069,2.2480218353811026,-5.4189569976703105,3.9766126599750216,24.3,0x0000,0x4056
26,0.9065213330000006,adis16470,0.02,-0.13125,0.985,0.196133,-1.2871228125,9.659550249999999,-33.012,-16.524,-13.645000000000001,-0.5761680926683681,-0.28839820559954304,-0.2381501764346263,-6.573560641933025,0.04514758969130636,1.7725322689564607,-7.589880627163256,-1.1530180230565628,24.3,0x0000,0x4056
27,0.9414205729999594,adis16470,0.0,-0.075,0.9475,0.0,-0.73549875,9.291800875,15.488,-21.924000000000003,-49.445,0.27031659454888174,-0.38264598520723686,-0.8629780486485963,-6.002896251391703,-0.7055852710278712,0.04693568824470695,-4.525849300954887,-0.0,24.200000000000003,0x0000,0x4056
28,0.9762749229998917,adis16470,0.02375,-0.12375,1.1175,0.2329079375,-1.2135729375,10.958931374999999,69.38799999999999,-48.224000000000004,-55.945,1.2110490613738252,-0.8416675784817456,-0.9764244500282276,-3.6391222519216724,-2.3628713667589265,-1.902985719620647,-6.3190883289956865,-1.2101172687336839,24.3,0x0000,0x4056
29,1.01113192099956,adis16470,0.14375000000000002,-0.19625,1.04125,1.4097059375,-1.9245550624999999,10.211174312499999,14.888,-8.624,-31.445000000000004,0.2598446190369158,-0.15051719469199099,-0.548818783289617,-3.271241049355687,-2.7647273366195844,-2.9990628582675187,-10.673633456697814,-7.725954708230672,24.3,0x0000,0x4056
30,1.045997325999906,adis16470,0.0,0.0,0.0,0.0,0.0,0.0,-72.51200000000001,82.876,-0.7450000000000004,-1.2655731472061285,1.4464590708828207,-0.013002702927357763,-5.6834133418669746,0.12228249004293605,-3.0250375857377687,0.0,-0.0,0.0,0x0000,0x4056
31,1.0807735619996492,adis16470,0.0,0.0,0.0,0.0,0.0,0.0,0.08799999999999995,1.9760000000000002,-0.7450000000000004,0.0015358897417550091,0.034487706019407954,-0.013002702927357763,-5.566745985200519,0.18718003913220915,-3.050945771297727,0.0,-0.0,0.0,0x0000,0x0000
32,1.115599428999758,adis16470,0.0,0.0,0.0,0.0,0.0,0.0,0.08799999999999995,1.9760000000000002,-0.7450000000000004,0.0015358897417550091,0.034487706019407954,-0.013002702927357763,-5.452407669962917,0.2508763198765864,-3.0768911524726583,0.0,-0.0,0.0,0x0000,0x0000
33,1.1504265739999937,adis16470,0.0,0.0,0.0,0.0,0.0,0.0,0.08799999999999995,1.9760000000000002,-0.7450000000000004,0.0015358897417550091,0.034487706019407954,-0.013002702927357763,-5.340356021940296,0.3133009000218421,-3.1028373896526844,0.0,-0.0,0.0,0x0000,0x0000
34,1.1852124959996218,adis16470,0.0,0.0,0.0,0.0,0.0,0.0,0.08799999999999995,1.9760000000000002,-0.7450000000000004,0.0015358897417550091,0.034487706019407954,-0.013002702927357763,-5.230548963674441,0.37439712231966604,-3.128752900797754,0.0,-0.0,0.0,0x0000,0x0000
35,1.2200385669998468,adis16470,0.0,0.0,0.0,0.0,0.0,0.0,0.08799999999999995,1.9760000000000002,-0.7450000000000004,0.0015358897417550091,0.034487706019407954,-0.013002702927357763,-5.122934585676474,0.434349133050177,-3.1546983095377326,0.0,-0.0,0.0,0x0000,0x0000
36,1.2548434519999319,adis16470,0.0,0.0,0.0,0.0,0.0,0.0,0.08799999999999995,1.9760000000000002,-0.7450000000000004,0.0015358897417550091,0.034487706019407954,-0.013002702927357763,-5.017474327062309,0.4930609707943724,-3.1806278937327015,0.0,-0.0,0.0,0x0000,0x0000
37,1.2896835229998942,adis16470,0.0,0.0,0.0,0.0,0.0,0.0,0.08799999999999995,1.9760000000000002,-0.7450000000000004,0.0015358897417550091,0.034487706019407954,-0.013002702927357763,-4.91412022313917,0.5506670689537195,-3.2065838300674687,0.0,-0.0,0.0,0x0000,0x0000
38,1.3245173339996654,adis16470,0.0,0.0,0.0,0.0,0.0,0.0,0.08799999999999995,1.9760000000000002,-0.7450000000000004,0.0015358897417550091,0.034487706019407954,-0.013002702927357763,-4.812833750901966,0.6071087039639033,-3.232535018517645,0.0,-0.0,0.0,0x0000,0x0000
39,1.3593213059998561,adis16470,0.0,0.0,0.0,0.0,0.0,0.0,0.08799999999999995,1.9760000000000002,-0.7450000000000004,0.0015358897417550091,0.034487706019407954,-0.013002702927357763,-4.713575592463629,0.6623634757767538,-3.2584638815524483,0.0,-0.0,0.0,0x0000,0x0000
40,1.394123204999687,adis16470,0.0,0.0,0.0,0.0,0.0,0.0,0.08799999999999995,1.9760000000000002,-0.7450000000000004,0.0015358897417550091,0.034487706019407954,-0.013002702927357763,-4.6163027712263425,0.716509244337526,-3.2843912411775666,0.0,-0.0,0.0,0x0000,0x0000
41,1.428924177999761,adis16470,0.0,0.0,0.0,0.0,0.0,0.0,0.08799999999999995,1.9760000000000002,-0.7450000000000004,0.0015358897417550091,0.034487706019407954,-0.013002702927357763,-4.520975465574444,0.7695707691017618,-3.310318089732669,0.0,-0.0,0.0,0x0000,0x0000
42,1.4637300949998462,adis16470,0.0,0.0,0.0,0.0,0.0,0.0,0.08799999999999995,1.9760000000000002,-0.7450000000000004,0.0015358897417550091,0.034487706019407954,-0.013002702927357763,-4.427554305105828,0.8215800660661314,-3.3362484017927323,0.0,-0.0,0.0,0x0000,0x0000
43,1.4985329199998887,adis16470,0.0,0.0,0.0,0.0,0.0,0.0,0.08799999999999995,1.9760000000000002,-0.7450000000000004,0.0015358897417550091,0.034487706019407954,-0.013002702927357763,-4.33600182501429,0.8725434025072797,-3.362176492262575,0.0,-0.0,0.0,0x0000,0x0000
44,1.5333287999997083,adis16470,0.0,0.0,0.0,0.0,0.0,0.0,0.08799999999999995,1.9760000000000002,-0.7450000000000004,0.0015358897417550091,0.034487706019407954,-0.013002702927357763,-4.246280993375124,0.9224740253029133,-3.3880994094525825,0.0,-0.0,0.0,0x0000,0x0000
45,1.5681305869998141,adis16470,0.0,0.0,0.0,0.0,0.0,0.0,0.08799999999999995,1.9760000000000002,-0.7450000000000004,0.0015358897417550091,0.034487706019407954,-0.013002702927357763,-4.158354070587618,0.9714174376369371,-3.414026713202614,0.0,-0.0,0.0,0x0000,0x0000
46,1.6029326339998988,adis16470,0.0,0.0,0.0,0.0,0.0,0.0,0.08799999999999995,1.9760000000000002,-0.7450000000000004,0.0015358897417550091,0.034487706019407954,-0.013002702927357763,-4.072185657451692,1.0193826285088052,-3.4399542657827245,0.0,-0.0,0.0,0x0000,0x0000
47,1.6377329590000045,adis16470,0.0,0.0,0.0,0.0,0.0,0.0,0.08799999999999995,1.9760000000000002,-0.7450000000000004,0.0015358897417550091,0.034487706019407954,-0.013002702927357763,-3.987740767465535,1.0663850376449509,-3.465880480342756,0.0,-0.0,0.0,0x0000,0x0000
48,1.6724962639996193,adis16470,0.0,0.0,0.0,0.0,0.0,0.0,0.08799999999999995,1.9760000000000002,-0.7450000000000004,0.0015358897417550091,0.034487706019407954,-0.013002702927357763,-3.9049879646930576,1.112375781757706,-3.491779142567469,0.0,-0.0,0.0,0x0000,0x0000
49,1.7072574019998683,adis16470,0.0,0.0,0.0,0.0,0.0,0.0,0.08799999999999995,1.9760000000000002,-0.7450000000000004,0.0015358897417550091,0.034487706019407954,-0.013002702927357763,-3.823890406496637,1.1574424778436625,-3.5176761762224658,0.0,-0.0,0.0,0x0000,0x0000
50,1.7420568369998364,adis16470,0.0,0.0,0.0,0.0,0.0,0.0,0.08799999999999995,1.9760000000000002,-0.7450000000000004,0.0015358897417550091,0.034487706019407954,-0.013002702927357763,-3.744411493453725,1.201682074969139,-3.543601769452631,0.0,-0.0,0.0,0x0000,0x0000
51,1.7770327239995822,adis16470,0.0,0.0,0.0,0.0,0.0,0.0,0.08799999999999995,1.9760000000000002,-0.7450000000000004,0.0015358897417550091,0.034487706019407954,-0.013002702927357763,-3.6665068872062356,1.2453797939668834,-3.569659288027757,0.0,-0.0,0.0,0x0000,0x0000
52,1.8119334029997844,adis16470,0.0,0.0,0.0,0.0,0.0,0.0,0.08799999999999995,1.9760000000000002,-0.7450000000000004,0.0015358897417550091,0.034487706019407954,-0.013002702927357763,-3.59016693560275,1.2880562002022886,-3.5956601150827656,0.0,-0.0,0.0,0x0000,0x0000
53,1.8468323059996692,adis16470,0.0,0.0,0.0,0.0,0.0,0.0,0.08799999999999995,1.9760000000000002,-0.7450000000000004,0.0015358897417550091,0.034487706019407954,-0.013002702927357763,-3.515353926793423,1.3298758502006205,-3.6216597002226956,0.0,-0.0,0.0,0x0000,0x0000
54,1.8816127219997725,adis16470,0.0,0.0,0.0,0.0,0.0,0.0,0.08799999999999995,1.9760000000000002,-0.7450000000000004,0.0015358897417550091,0.034487706019407954,-0.013002702927357763,-3.442047393115819,1.3706297350155703,-3.647571041602481,0.0,-0.0,0.0,0x0000,0x0000
55,1.916450973999872,adis16470,0.0,0.0,0.0,0.0,0.0,0.0,0.08799999999999995,1.9760000000000002,-0.7450000000000004,0.0015358897417550091,0.034487706019407954,-0.013002702927357763,-3.370201989657825,1.410680825054566,-3.673525580317461,0.0,-0.0,0.0,0x0000,0x0000
56,1.9512640579996514,adis16470,0.0,0.0,0.0,0.0,0.0,0.0,0.08799999999999995,1.9760000000000002,-0.7450000000000004,0.0015358897417550091,0.034487706019407954,-0.013002702927357763,-3.299795682177791,1.4498817647951758,-3.6994612183824382,0.0,-0.0,0.0,0x0000,0x0000
57,1.9860718089998954,adis16470,0.0,0.0,0.0,0.0,0.0,0.0,0.08799999999999995,1.9760000000000002,-0.7450000000000004,0.0015358897417550091,0.034487706019407954,-0.013002702927357763,-3.2307979481742133,1.4882886412197653,-3.725392992132628,0.0,-0.0,0.0,0x0000,0x0000
58,2.020883725999738,adis16470,0.0,0.0,0.0,0.0,0.0,0.0,0.08799999999999995,1.9760000000000002,-0.7450000000000004,0.0015358897417550091,0.034487706019407954,-0.013002702927357763,-3.1631797966388815,1.5259357379632164,-3.751327981302692,0.0,-0.0,0.0,0x0000,0x0000
59,2.0556751249996523,adis16470,0.0,0.0,0.0,0.0,0.0,0.0,0.08799999999999995,1.9760000000000002,-0.7450000000000004,0.0015358897417550091,0.034487706019407954,-0.013002702927357763,-3.0969158001152466,1.5627896546531976,-3.777247490117494,0.0,-0.0,0.0,0x0000,0x0000
60,2.0904870789995584,adis16470,0.0,0.0,0.0,0.0,0.0,0.0,0.08799999999999995,1.9760000000000002,-0.7450000000000004,0.0015358897417550091,0.034487706019407954,-0.013002702927357763,-3.0319753123249105,1.5989462644368324,-3.803182299742763,0.0,-0.0,0.0,0x0000,0x0000
61,2.125300774999687,adis16470,0.0,0.0,0.0,0.0,0.0,0.0,0.08799999999999995,1.9760000000000002,-0.7450000000000004,0.0015358897417550091,0.034487706019407954,-0.013002702927357763,-2.968333471383058,1.6343834000346957,-3.829118516672717,0.0,-0.0,0.0,0x0000,0x0000
62,2.160110543999963,adis16470,0.0,0.0,0.0,0.0,0.0,0.0,0.08799999999999995,1.9760000000000002,-0.7450000000000004,0.0015358897417550091,0.034487706019407954,-0.013002702927357763,-2.905964809029155,1.6691041186505042,-3.8550517811677256,0.0,-0.0,0.0,0x0000,0x0000
63,2.194921090999742,adis16470,0.0,0.0,0.0,0.0,0.0,0.0,0.08799999999999995,1.9760000000000002,-0.7450000000000004,0.0015358897417550091,0.034487706019407954,-0.013002702927357763,-2.844843449636729,1.7031320011252378,-3.88098565283775,0.0,-0.0,0.0,0x0000,0x0000
64,2.229736156999934,adis16470,0.0,0.0,0.0,0.0,0.0,0.0,0.08799999999999995,1.9760000000000002,-0.7450000000000004,0.0015358897417550091,0.034487706019407954,-0.013002702927357763,-2.78494413099072,1.7364880033171735,-3.906922862852704,0.0,-0.0,0.0,0x0000,0x0000
65,2.2645035919999827,adis16470,0.0,0.0,0.0,0.0,0.0,0.0,0.08799999999999995,1.9760000000000002,-0.7450000000000004,0.0015358897417550091,0.034487706019407954,-0.013002702927357763,-2.7262469016718938,1.7690847554922673,-3.932824628747457,0.0,-0.0,0.0,0x0000,0x0000
66,2.2993795299998965,adis16470,0.0,0.0,0.0,0.0,0.0,0.0,0.08799999999999995,1.9760000000000002,-0.7450000000000004,0.0015358897417550091,0.034487706019407954,-0.013002702927357763,-2.668714233941174,1.8012402635850195,-3.9588074513874716,0.0,-0.0,0.0,0x0000,0x0000
67,2.3342299269997966,adis16470,0.0,0.0,0.0,0.0,0.0,0.0,0.08799999999999995,1.9760000000000002,-0.7450000000000004,0.0015358897417550091,0.034487706019407954,-0.013002702927357763,-2.612334457406811,1.8327024117968005,-3.9847709420226414,0.0,-0.0,0.0,0x0000,0x0000
68,2.3690422099998614,adis16470,0.0,0.0,0.0,0.0,0.0,0.0,0.08799999999999995,1.9760000000000002,-0.7450000000000004,0.0015358897417550091,0.034487706019407954,-0.013002702927357763,-2.557085558525092,1.8634616184876778,-4.010706079447493,0.0,-0.0,0.0,0x0000,0x0000
69,2.4038728829996217,adis16470,0.0,0.0,0.0,0.0,0.0,0.0,0.08799999999999995,1.9760000000000002,-0.7450000000000004,0.0015358897417550091,0.034487706019407954,-0.013002702927357763,-2.5029400485627478,1.893641322625652,-4.036654944242511,0.0,-0.0,0.0,0x0000,0x0000
70,2.438692462999825,adis16470,0.0,0.0,0.0,0.0,0.0,0.0,0.08799999999999995,1.9760000000000002,-0.7450000000000004,0.0015358897417550091,0.034487706019407954,-0.013002702927357763,-2.4498784133940466,1.9231957731521667,-4.062595476212568,0.0,-0.0,0.0,0x0000,0x0000
71,2.473475225999664,adis16470,0.0,0.0,0.0,0.0,0.0,0.0,0.08799999999999995,1.9760000000000002,-0.7450000000000004,0.0015358897417550091,0.034487706019407954,-0.013002702927357763,-2.3978811780064775,1.9520880193766634,-4.088508648802637,0.0,-0.0,0.0,0x0000,0x0000
72,2.508271823999621,adis16470,0.0,0.0,0.0,0.0,0.0,0.0,0.08799999999999995,1.9760000000000002,-0.7450000000000004,0.0015358897417550091,0.034487706019407954,-0.013002702927357763,-2.3469227086845734,1.9804288865489768,-4.114432003307763,0.0,-0.0,0.0,0x0000,0x0000
73,2.543070291999811,adis16470,0.0,0.0,0.0,0.0,0.0,0.0,0.08799999999999995,1.9760000000000002,-0.7450000000000004,0.0015358897417550091,0.034487706019407954,-0.013002702927357763,-2.296983242564659,2.0082066679740875,-4.140356793427613,0.0,-0.0,0.0,0x0000,0x0000
74,2.5778599999998733,adis16470,0.0,0.0,0.0,0.0,0.0,0.0,0.08799999999999995,1.9760000000000002,-0.7450000000000004,0.0015358897417550091,0.034487706019407954,-0.013002702927357763,-2.248043310104555,2.0354121800124485,-4.166275153452706,0.0,-0.0,0.0,0x0000,0x0000
75,2.6126328189998276,adis16470,0.0,0.0,0.0,0.0,0.0,0.0,0.08799999999999995,1.9760000000000002,-0.7450000000000004,0.0015358897417550091,0.034487706019407954,-0.013002702927357763,-2.20008363763049,2.0620407681556197,-4.192180889452483,0.0,-0.0,0.0,0x0000,0x0000
76,2.64739334099977,adis16470,0.0,0.0,0.0,0.0,0.0,0.0,0.08799999999999995,1.9760000000000002,-0.7450000000000004,0.0015358897417550091,0.034487706019407954,-0.013002702927357763,-2.153084219012909,2.088112973578684,-4.218077464932581,0.0,-0.0,0.0,0x0000,0x0000
77,2.6821844379996946,adis16470,0.0,0.0,0.0,0.0,0.0,0.0,0.08799999999999995,1.9760000000000002,-0.7450000000000004,0.0015358897417550091,0.034487706019407954,-0.013002702927357763,-2.107022151979681,2.1137229427692534,-4.243996818787667,0.0,-0.0,0.0,0x0000,0x0000
78,2.7169795359995987,adis16470,0.0,0.0,0.0,0.0,0.0,0.0,0.08799999999999995,1.9760000000000002,-0.7450000000000004,0.0015358897417550091,0.034487706019407954,-0.013002702927357763,-2.0618809797748145,2.1388284933522628,-4.2699191660526035,0.0,-0.0,0.0,0x0000,0x0000
79,2.751789799999642,adis16470,0.0,0.0,0.0,0.0,0.0,0.0,0.08799999999999995,1.9760000000000002,-0.7450000000000004,0.0015358897417550091,0.034487706019407954,-0.013002702927357763,-2.0176413229257153,2.163461305452481,-4.2958528134776275,0.0,-0.0,0.0,0x0000,0x0000
80,2.7865951019998647,adis16470,0.0,0.0,0.0,0.0,0.0,0.0,0.08799999999999995,1.9760000000000002,-0.7450000000000004,0.0015358897417550091,0.034487706019407954,-0.013002702927357763,-1.9742868505707365,2.187592673564044,-4.321783080092494,0.0,-0.0,0.0,0x0000,0x0000
81,2.8214045139998234,adis16470,0.0,0.0,0.0,0.0,0.0,0.0,0.08799999999999995,1.9760000000000002,-0.7450000000000004,0.0015358897417550091,0.034487706019407954,-0.013002702927357763,-1.9317991769477934,2.211247942187989,-4.347715858102566,0.0,-0.0,0.0,0x0000,0x0000
82,2.8562599289998616,adis16470,0.0,0.0,0.0,0.0,0.0,0.0,0.08799999999999995,1.9760000000000002,-0.7450000000000004,0.0015358897417550091,0.034487706019407954,-0.013002702927357763,-1.8901572193854586,2.234520763687372,-4.373683514032728,0.0,-0.0,0.0,0x0000,0x0000
83,2.891063600999587,adis16470,0.0,0.0,0.0,0.0,0.0,0.0,0.08799999999999995,1.9760000000000002,-0.7450000000000004,0.0015358897417550091,0.034487706019407954,-0.013002702927357763,-1.8493526526353539,2.2572259232783223,-4.399611849607689,0.0,-0.0,0.0,0x0000,0x0000
84,2.925859178999872,adis16470,0.0,0.0,0.0,0.0,0.0,0.0,0.08799999999999995,1.9760000000000002,-0.7450000000000004,0.0015358897417550091,0.034487706019407954,-0.013002702927357763,-1.8093648336791304,2.2794622391917128,-4.425534514242657,0.0,-0.0,0.0,0x0000,0x0000
85,2.9606263129999206,adis16470,0.0,0.0,0.0,0.0,0.0,0.0,0.08799999999999995,1.9760000000000002,-0.7450000000000004,0.0015358897417550091,0.034487706019407954,-0.013002702927357763,-1.7701792210079652,2.3011988172626814,-4.451436014917505,0.0,-0.0,0.0,0x0000,0x0000
86,2.995392742999684,adis16470,0.0,0.0,0.0,0.0,0.0,0.0,0.08799999999999995,1.9760000000000002,-0.7450000000000004,0.0015358897417550091,0.034487706019407954,-0.013002702927357763,-1.731777379664587,2.3224993372842495,-4.4773370052676675,0.0,-0.0,0.0,0x0000,0x0000
87,3.0302128589996755,adis16470,0.0,0.0,0.0,0.0,0.0,0.0,0.08799999999999995,1.9760000000000002,-0.7450000000000004,0.0015358897417550091,0.034487706019407954,-0.013002702927357763,-1.6941389260359432,2.3434782406051045,-4.503278157822598,0.0,-0.0,0.0,0x0000,0x0000
88,3.0650091609995798,adis16470,0.0,0.0,0.0,0.0,0.0,0.0,0.08799999999999995,1.9760000000000002,-0.7450000000000004,0.0015358897417550091,0.034487706019407954,-0.013002702927357763,-1.6572553224510662,2.3639908385972803,-4.529201333527582,0.0,-0.0,0.0,0x0000,0x0000
89,3.0997992579996207,adis16470,0.0,0.0,0.0,0.0,0.0,0.0,0.08799999999999995,1.9760000000000002,-0.7450000000000004,0.0015358897417550091,0.034487706019407954,-0.013002702927357763,-1.6211099228661896,2.3840812404213603,-4.555119914072715,0.0,-0.0,0.0,0x0000,0x0000
90,3.1345606869999756,adis16470,0.0,0.0,0.0,0.0,0.0,0.0,0.08799999999999995,1.9760000000000002,-0.7450000000000004,0.0015358897417550091,0.034487706019407954,-0.013002702927357763,-1.5856898971333717,2.4037144644353905,-4.5810171928324905,0.0,-0.0,0.0,0x0000,0x0000
91,3.169323190999876,adis16470,0.0,0.0,0.0,0.0,0.0,0.0,0.08799999999999995,1.9760000000000002,-0.7450000000000004,0.0015358897417550091,0.034487706019407954,-0.013002702927357763,-1.5509781808457137,2.42295706889329,-4.606915258312755,0.0,-0.0,0.0,0x0000,0x0000
92,3.204114806999769,adis16470,0.0,0.0,0.0,0.0,0.0,0.0,0.08799999999999995,1.9760000000000002,-0.7450000000000004,0.0015358897417550091,0.034487706019407954,-0.013002702927357763,-1.516958191455854,2.4418711244170144,-4.632834984667628,0.0,-0.0,0.0,0x0000,0x0000
93,3.238902478,adis16470,0.0,0.0,0.0,0.0,0.0,0.0,0.08799999999999995,1.9760000000000002,-0.7450000000000004,0.0015358897417550091,0.034487706019407954,-0.013002702927357763,-1.483618935688831,2.4603994027162037,-4.658751827127509,0.0,-0.0,0.0,0x0000,0x0000
94,3.2736918529999457,adis16470,0.0,0.0,0.0,0.0,0.0,0.0,0.08799999999999995,1.9760000000000002,-0.7450000000000004,0.0015358897417550091,0.034487706019407954,-0.013002702927357763,-1.4509463228273625,2.4785603087055033,-4.6846698980926105,0.0,-0.0,0.0,0x0000,0x0000
95,3.30855124899972,adis16470,0.0,0.0,0.0,0.0,0.0,0.0,0.08799999999999995,1.9760000000000002,-0.7450000000000004,0.0015358897417550091,0.034487706019407954,-0.013002702927357763,-1.4189211077439492,2.496493947152839,-4.71064027178249,0.0,-0.0,0.0,0x0000,0x0000
96,3.343377564999628,adis16470,0.0,0.0,0.0,0.0,0.0,0.0,0.08799999999999995,1.9760000000000002,-0.7450000000000004,0.0015358897417550091,0.034487706019407954,-0.013002702927357763,-1.3875392656495418,2.5140044977610123,-4.736585863792563,0.0,-0.0,0.0,0x0000,0x0000
97,3.378203547999874,adis16470,0.0,0.0,0.0,0.0,0.0,0.0,0.08799999999999995,1.9760000000000002,-0.7450000000000004,0.0015358897417550091,0.034487706019407954,-0.013002702927357763,-1.3567850875626097,2.5311642273661086,-4.762531221127746,0.0,-0.0,0.0,0x0000,0x0000
98,3.4130779949996395,adis16470,0.0,0.0,0.0,0.0,0.0,0.0,0.08799999999999995,1.9760000000000002,-0.7450000000000004,0.0015358897417550091,0.034487706019407954,-0.013002702927357763,-1.3266417927182423,2.5480750786369204,-4.788512863687705,0.0,-0.0,0.0,0x0000,0x0000
99,3.4479359049996674,adis16470,0.0,0.0,0.0,0.0,0.0,0.0,0.08799999999999995,1.9760000000000002,-0.7450000000000004,0.0015358897417550091,0.034487706019407954,-0.013002702927357763,-1.2971028203643706,2.564615005734928,-4.814481923197592,0.0,-0.0,0.0,0x0000,0x0000
100,3.4827118119997067,adis16470,0.0,0.0,0.0,0.0,0.0,0.0,0.08799999999999995,1.9760000000000002,-0.7450000000000004,0.0015358897417550091,0.034487706019407954,-0.013002702927357763,-1.268161705691788,2.580665195759132,-4.8403898360877236,0.0,-0.0,0.0,0x0000,0x0000
101,3.517584813999747,adis16470,0.0,0.0,0.0,0.0,0.0,0.0,0.08799999999999995,1.9760000000000002,-0.7450000000000004,0.0015358897417550091,0.034487706019407954,-0.013002702927357763,-1.2397910174174978,2.596582907992332,-4.866370278452502,0.0,-0.0,0.0,0x0000,0x0000
102,3.55242116799991,adis16470,0.0,0.0,0.0,0.0,0.0,0.0,0.08799999999999995,1.9760000000000002,-0.7450000000000004,0.0015358897417550091,0.034487706019407954,-0.013002702927357763,-1.2119909036046417,2.612111293990027,-4.892323416567725,0.0,-0.0,0.0,0x0000,0x0000
103,3.587232390999816,adis16470,0.0,0.0,0.0,0.0,0.0,0.0,0.08799999999999995,1.9760000000000002,-0.7450000000000004,0.0015358897417550091,0.034487706019407954,-0.013002702927357763,-1.1847489641087334,2.6272803400813562,-4.918257791112514,0.0,-0.0,0.0,0x0000,0x0000
104,3.622037779999573,adis16470,0.0,0.0,0.0,0.0,0.0,0.0,0.08799999999999995,1.9760000000000002,-0.7450000000000004,0.0015358897417550091,0.034487706019407954,-0.013002702927357763,-1.1580523775655978,2.6421344599576706,-4.944187723967522,0.0,-0.0,0.0,0x0000,0x0000
105,3.6568420019998484,adis16470,0.0,0.0,0.0,0.0,0.0,0.0,0.08799999999999995,1.9760000000000002,-0.7450000000000004,0.0015358897417550091,0.034487706019407954,-0.013002702927357763,-1.1318898186522102,2.656689344070575,-4.970116828382483,0.0,-0.0,0.0,0x0000,0x0000
106,3.6916536879998603,adis16470,0.0,0.0,0.0,0.0,0.0,0.0,0.08799999999999995,1.9760000000000002,-0.7450000000000004,0.0015358897417550091,0.034487706019407954,-0.013002702927357763,-1.1062498657556494,2.6709676173081243,-4.996051506142452,0.0,-0.0,0.0,0x0000,0x0000
107,3.72645815199985,adis16470,0.0,0.0,0.0,0.0,0.0,0.0,0.08799999999999995,1.9760000000000002,-0.7450000000000004,0.0015358897417550091,0.034487706019407954,-0.013002702927357763,-1.08112333310372,2.6849463766159314,-5.021980817667594,0.0,-0.0,0.0,0x0000,0x0000
108,3.761318690999815,adis16470,0.0,0.0,0.0,0.0,0.0,0.0,0.08799999999999995,1.9760000000000002,-0.7450000000000004,0.0015358897417550091,0.034487706019407954,-0.013002702927357763,-1.0564944711358903,2.6987546891310235,-5.047952112922553,0.0,-0.0,0.0,0x0000,0x0000
109,3.796131024999795,adis16470,0.0,0.0,0.0,0.0,0.0,0.0,0.08799999999999995,1.9760000000000002,-0.7450000000000004,0.0015358897417550091,0.034487706019407954,-0.013002702927357763,-1.0323623884514124,2.7121924804079254,-5.073887108052554,0.0,-0.0,0.0,0x0000,0x0000
110,3.8309410069996375,adis16470,0.0,0.0,0.0,0.0,0.0,0.0,0.08799999999999995,1.9760000000000002,-0.7450000000000004,0.0015358897417550091,0.034487706019407954,-0.013002702927357763,-1.0087131325779068,2.7253573582366677,-5.099820503667531,0.0,-0.0,0.0,0x0000,0x0000
111,3.865751488999649,adis16470,0.0,0.0,0.0,0.0,0.0,0.0,0.08799999999999995,1.9760000000000002,-0.7450000000000004,0.0015358897417550091,0.034487706019407954,-0.013002702927357763,-0.9855368155109712,2.7382599783990456,-5.1257542993476815,0.0,-0.0,0.0,0x0000,0x0000
112,3.900559952999629,adis16470,0.0,0.0,0.0,0.0,0.0,0.0,0.08799999999999995,1.9760000000000002,-0.7450000000000004,0.0015358897417550091,0.034487706019407954,-0.013002702927357763,-0.9628241973516326,2.750900671261286,-5.151686604282674,0.0,-0.0,0.0,0x0000,0x0000
113,3.93535652699984,adis16470,0.0,0.0,0.0,0.0,0.0,0.0,0.08799999999999995,1.9760000000000002,-0.7450000000000004,0.0015358897417550091,0.034487706019407954,-0.013002702927357763,-0.94056685048109,2.763265670754874,-5.177610107042587,0.0,-0.0,0.0,0x0000,0x0000
114,3.9701547309996386,adis16470,0.0,0.0,0.0,0.0,0.0,0.0,0.08799999999999995,1.9760000000000002,-0.7450000000000004,0.0015358897417550091,0.034487706019407954,-0.013002702927357763,-0.9187545259311427,2.7753861684725387,-5.203534686327634,0.0,-0.0,0.0,0x0000,0x0000
115,4.00491302599994,adis16470,0.0,0.0,0.0,0.0,0.0,0.0,0.08799999999999995,1.9760000000000002,-0.7450000000000004,0.0015358897417550091,0.034487706019407954,-0.013002702927357763,-0.8973818816040366,2.78718715334812,-5.229429602692662,0.0,-0.0,0.0,0x0000,0x0000
116,4.039673579999999,adis16470,0.0,0.0,0.0,0.0,0.0,0.0,0.08799999999999995,1.9760000000000002,-0.7450000000000004,0.0015358897417550091,0.034487706019407954,-0.013002702927357763,-0.8764364889655627,2.798756636333805,-5.2553262571426025,0.0,-0.0,0.0,0x0000,0x0000
117,4.074473024999861,adis16470,0.0,0.0,0.0,0.0,0.0,0.0,0.08799999999999995,1.9760000000000002,-0.7450000000000004,0.0015358897417550091,0.034487706019407954,-0.013002702927357763,-0.8559066583265879,2.8101698592741196,-5.281251815357461,0.0,-0.0,0.0,0x0000,0x0000
118,4.109270987999935,adis16470,0.0,0.0,0.0,0.0,0.0,0.0,0.08799999999999995,1.9760000000000002,-0.7450000000000004,0.0015358897417550091,0.034487706019407954,-0.013002702927357763,-0.8357875456400442,2.821352093128903,-5.307176325357563,0.0,-0.0,0.0,0x0000,0x0000
119,4.144071913999596,adis16470,0.0,0.0,0.0,0.0,0.0,0.0,0.08799999999999995,1.9760000000000002,-0.7450000000000004,0.0015358897417550091,0.034487706019407954,-0.013002702927357763,-0.8160705660598787,2.832316276797147,-5.333102987662603,0.0,-0.0,0.0,0x0000,0x0000
120,4.178840597999624,adis16470,0.0,0.0,0.0,0.0,0.0,0.0,0.08799999999999995,1.9760000000000002,-0.7450000000000004,0.0015358897417550091,0.034487706019407954,-0.013002702927357763,-0.7967507033442797,2.8429988143900373,-5.359005657987615,0.0,-0.0,0.0,0x0000,0x0000
121,4.213602430999799,adis16470,0.0,0.0,0.0,0.0,0.0,0.0,0.08799999999999995,1.9760000000000002,-0.7450000000000004,0.0015358897417550091,0.034487706019407954,-0.013002702927357763,-0.7778178288856981,2.853454430533956,-5.384903222827754,0.0,-0.0,0.0,0x0000,0x0000
122,4.248405411999556,adis16470,0.0,0.0,0.0,0.0,0.0,0.0,0.08799999999999995,1.9760000000000002,-0.7450000000000004,0.0015358897417550091,0.034487706019407954,-0.013002702927357763,-0.759260063140326,2.8637806205061462,-5.410831444417565,0.0,-0.0,0.0,0x0000,0x0000
123,4.283203782999863,adis16470,0.0,0.0,0.0,0.0,0.0,0.0,0.08799999999999995,1.9760000000000002,-0.7450000000000004,0.0015358897417550091,0.034487706019407954,-0.013002702927357763,-0.7410738504487314,2.873891355633356,-5.436756230067462,0.0,-0.0,0.0,0x0000,0x0000
124,4.318001948999608,adis16470,0.0,0.0,0.0,0.0,0.0,0.0,0.08799999999999995,1.9760000000000002,-0.7450000000000004,0.0015358897417550091,0.034487706019407954,-0.013002702927357763,-0.7232513796038994,2.8837994810167573,-5.462680863737611,0.0,-0.0,0.0,0x0000,0x0000
125,4.352774017999764,adis16470,0.0,0.0,0.0,0.0,0.0,0.0,0.08799999999999995,1.9760000000000002,-0.7450000000000004,0.0015358897417550091,0.034487706019407954,-0.013002702927357763,-0.7057876119721335,2.8934588359239597,-5.488586027577679,0.0,-0.0,0.0,0x0000,0x0000
126,4.387532863999695,adis16470,0.0,0.0,0.0,0.0,0.0,0.0,0.08799999999999995,1.9760000000000002,-0.7450000000000004,0.0015358897417550091,0.034487706019407954,-0.013002702927357763,-0.6886742521104676,2.9028995758135823,-5.514481408822534,0.0,-0.0,0.0,0x0000,0x0000
127,4.4223778239997955,adis16470,0.0,0.0,0.0,0.0,0.0,0.0,0.08799999999999995,1.9760000000000002,-0.7450000000000004,0.0015358897417550091,0.034487706019407954,-0.013002702927357763,-0.6718957169339941,2.912318619130333,-5.5404410835677425,0.0,-0.0,0.0,0x0000,0x0000
128,4.457200134999766,adis16470,0.0,0.0,0.0,0.0,0.0,0.0,0.08799999999999995,1.9760000000000002,-0.7450000000000004,0.0015358897417550091,0.034487706019407954,-0.013002702927357763,-0.6554547280470195,2.921504920695798,-5.566383691852524,0.0,-0.0,0.0,0x0000,0x0000
129,4.49200446399982,adis16470,0.0,0.0,0.0,0.0,0.0,0.0,0.08799999999999995,1.9760000000000002,-0.7450000000000004,0.0015358897417550091,0.034487706019407954,-0.013002702927357763,-0.6393441209166172,2.9304724227052543,-5.592312806697713,0.0,-0.0,0.0,0x0000,0x0000
130,4.5268421079999825,adis16470,0.0,0.0,0.0,0.0,0.0,0.0,0.08799999999999995,1.9760000000000002,-0.7450000000000004,0.0015358897417550091,0.034487706019407954,-0.013002702927357763,-0.6235528208481981,2.939325806939461,-5.618267017612771,0.0,-0.0,0.0,0x0000,0x0000
131,4.5616032139996605,adis16470,0.0,0.0,0.0,0.0,0.0,0.0,0.08799999999999995,1.9760000000000002,-0.7450000000000004,0.0015358897417550091,0.034487706019407954,-0.013002702927357763,-0.6080839858813346,2.9478530455120517,-5.644163875447594,0.0,-0.0,0.0,0x0000,0x0000
132,4.596492063999904,adis16470,0.0,0.0,0.0,0.0,0.0,0.0,0.08799999999999995,1.9760000000000002,-0.7450000000000004,0.0015358897417550091,0.034487706019407954,-0.013002702927357763,-0.5929134501720151,2.9564584782334573,-5.670156427787704,0.0,-0.0,0.0,0x0000,0x0000
133,4.631324412999675,adis16470,0.0,0.0,0.0,0.0,0.0,0.0,0.08799999999999995,1.9760000000000002,-0.7450000000000004,0.0015358897417550091,0.034487706019407954,-0.013002702927357763,-0.5780512666426609,2.964780843932492,-5.696106292372652,0.0,-0.0,0.0,0x0000,0x0000
134,4.66614637199973,adis16470,0.0,0.0,0.0,0.0,0.0,0.0,0.08799999999999995,1.9760000000000002,-0.7450000000000004,0.0015358897417550091,0.034487706019407954,-0.013002702927357763,-0.5634871923747574,2.9729173258681523,-5.72204867939274,0.0,-0.0,0.0,0x0000,0x0000
135,4.700929569999971,adis16470,0.0,0.0,0.0,0.0,0.0,0.0,0.08799999999999995,1.9760000000000002,-0.7450000000000004,0.0015358897417550091,0.034487706019407954,-0.013002702927357763,-0.549217748636407,2.980815876899992,-5.747962135082526,0.0,-0.0,0.0,0x0000,0x0000
136,4.7357662519998485,adis16470,0.0,0.0,0.0,0.0,0.0,0.0,0.08799999999999995,1.9760000000000002,-0.7450000000000004,0.0015358897417550091,0.034487706019407954,-0.013002702927357763,-0.5352290798465522,2.9886600605283835,-5.773915449017585,0.0,-0.0,0.0,0x0000,0x0000
137,4.770668750999903,adis16470,0.0,0.0,0.0,0.0,0.0,0.0,0.08799999999999995,1.9760000000000002,-0.7450000000000004,0.0015358897417550091,0.034487706019407954,-0.013002702927357763,-0.521514485952001,2.9964753172734695,-5.799917990317759,0.0,-0.0,0.0,0x0000,0x0000
138,4.805485933,adis16470,0.0,0.0,0.0,0.0,0.0,0.0,0.08799999999999995,1.9760000000000002,-0.7450000000000004,0.0015358897417550091,0.034487706019407954,-0.013002702927357763,-0.5080815800502426,3.0039681924854027,-5.825856638927744,0.0,-0.0,0.0,0x0000,0x0000
139,4.840357818999564,adis16470,0.0,0.0,0.0,0.0,0.0,0.0,0.08799999999999995,1.9760000000000002,-0.7450000000000004,0.0015358897417550091,0.034487706019407954,-0.013002702927357763,-0.4949125841508544,3.011417826972122,-5.851836305002601,0.0,-0.0,0.0,0x0000,0x0000
140,4.875121016999856,adis16470,0.0,0.0,0.0,0.0,0.0,0.0,0.08799999999999995,1.9760000000000002,-0.7450000000000004,0.0015358897417550091,0.034487706019407954,-0.013002702927357763,-0.4820163766947295,3.0185072046106445,-5.877734693812496,0.0,-0.0,0.0,0x0000,0x0000
141,4.909942883999975,adis16470,0.0,0.0,0.0,0.0,0.0,0.0,0.08799999999999995,1.9760000000000002,-0.7450000000000004,0.0015358897417550091,0.034487706019407954,-0.013002702927357763,-0.4693730049689738,3.0255690528265875,-5.903677039857679,0.0,-0.0,0.0,0x0000,0x0000
142,4.944754397999986,adis16470,0.0,0.0,0.0,0.0,0.0,0.0,0.08799999999999995,1.9760000000000002,-0.7450000000000004,0.0015358897417550091,0.034487706019407954,-0.013002702927357763,-0.45698340309311875,3.032469400750916,-5.929611590222641,0.0,-0.0,0.0,0x0000,0x0000
143,4.979535096999825,adis16470,0.0,0.0,0.0,0.0,0.0,0.0,0.08799999999999995,1.9760000000000002,-0.7450000000000004,0.0015358897417550091,0.034487706019407954,-0.013002702927357763,-0.4448442587607094,3.039171888992726,-5.955523114127529,0.0,-0.0,0.0,0x0000,0x0000
144,5.01432838799974,adis16470,0.0,0.0,0.0,0.0,0.0,0.0,0.08799999999999995,1.9760000000000002,-0.7450000000000004,0.0015358897417550091,0.034487706019407954,-0.013002702927357763,-0.43294680327426976,3.0457648936558432,-5.981444089102749,0.0,-0.0,0.0,0x0000,0x0000
145,5.049130216999856,adis16470,0.0,0.0,0.0,0.0,0.0,0.0,0.08799999999999995,1.9760000000000002,-0.7450000000000004,0.0015358897417550091,0.034487706019407954,-0.013002702927357763,-0.42128656066673903,3.052242569954108,-6.007371424142449,0.0,-0.0,0.0,0x0000,0x0000
146,5.083929008999803,adis16470,0.0,0.0,0.0,0.0,0.0,0.0,0.08799999999999995,1.9760000000000002,-0.7450000000000004,0.0015358897417550091,0.034487706019407954,-0.013002702927357763,-0.409859780078986,3.0585849181442346,-6.033296537592607,0.0,-0.0,0.0,0x0000,0x0000
147,5.118701910999789,adis16470,0.0,0.0,0.0,0.0,0.0,0.0,0.08799999999999995,1.9760000000000002,-0.7450000000000004,0.0015358897417550091,0.034487706019407954,-0.013002702927357763,-0.3986637694089275,3.064750249046283,-6.059202349582597,0.0,-0.0,0.0,0x0000,0x0000
148,5.153455071999815,adis16470,0.0,0.0,0.0,0.0,0.0,0.0,0.08799999999999995,1.9760000000000002,-0.7450000000000004,0.0015358897417550091,0.034487706019407954,-0.013002702927357763,-0.38769338150234584,3.070754043342228,-6.085093453782624,0.0,-0.0,0.0,0x0000,0x0000
149,5.188250362999952,adis16470,0.0,0.0,0.0,0.0,0.0,0.0,0.08799999999999995,1.9760000000000002,-0.7450000000000004,0.0015358897417550091,0.034487706019407954,-0.013002702927357763,-0.376938767890208,3.076719349527788,-6.111015946322717,0.0,-0.0,0.0,0x0000,0x0000
150,5.223046709999835,adis16470,0.0,0.0,0.0,0.0,0.0,0.0,0.08799999999999995,1.9760000000000002,-0.7450000000000004,0.0015358897417550091,0.034487706019407954,-0.013002702927357763,-0.36639915711943755,3.0825673577192942,-6.136939211427772,0.0,-0.0,0.0,0x0000,0x0000
151,5.257914781999716,adis16470,0.0,0.0,0.0,0.0,0.0,0.0,0.08799999999999995,1.9760000000000002,-0.7450000000000004,0.0015358897417550091,0.034487706019407954,-0.013002702927357763,-0.3560641386842764,3.0884376212298887,-6.162916035327534,0.0,-0.0,0.0,0x0000,0x0000
152,5.292736815999888,adis16470,0.0,0.0,0.0,0.0,0.0,0.0,0.08799999999999995,1.9760000000000002,-0.7450000000000004,0.0015358897417550091,0.034487706019407954,-0.013002702927357763,-0.34593979576434153,3.0941012193619803,-6.188858519197614,0.0,-0.0,0.0,0x0000,0x0000
153,5.327534289999676,adis16470,0.0,0.0,0.0,0.0,0.0,0.0,0.08799999999999995,1.9760000000000002,-0.7450000000000004,0.0015358897417550091,0.034487706019407954,-0.013002702927357763,-0.3360200736253875,3.0996036292698133,-6.214782568787504,0.0,-0.0,0.0,0x0000,0x0000
154,5.362336391999634,adis16470,0.0,0.0,0.0,0.0,0.0,0.0,0.08799999999999995,1.9760000000000002,-0.7450000000000004,0.0015358897417550091,0.034487706019407954,-0.013002702927357763,-0.32629834370583155,3.1050050227226813,-6.240710093057575,0.0,-0.0,0.0,0x0000,0x0000
155,5.397155827999995,adis16470,0.0,0.0,0.0,0.0,0.0,0.0,0.08799999999999995,1.9760000000000002,-0.7450000000000004,0.0015358897417550091,0.034487706019407954,-0.013002702927357763,-0.31676953590754103,3.110332350292859,-6.266650683137695,0.0,-0.0,0.0,0x0000,0x0000
156,5.432006542999716,adis16470,0.0,0.0,0.0,0.0,0.0,0.0,0.08799999999999995,1.9760000000000002,-0.7450000000000004,0.0015358897417550091,0.034487706019407954,-0.013002702927357763,-0.30742861952781436,3.1156134158696602,-6.292614465812487,0.0,-0.0,0.0,0x0000,0x0000
157,5.466810625999642,adis16470,0.0,0.0,0.0,0.0,0.0,0.0,0.08799999999999995,1.9760000000000002,-0.7450000000000004,0.0015358897417550091,0.034487706019407954,-0.013002702927357763,-0.2982785494010762,3.1206984149010792,-6.318543452517676,0.0,-0.0,0.0,0x0000,0x0000
158,5.501622505999876,adis16470,0.0,0.0,0.0,0.0,0.0,0.0,0.08799999999999995,1.9760000000000002,-0.7450000000000004,0.0015358897417550091,0.034487706019407954,-0.013002702927357763,-0.2893107922229782,3.1256971728711385,-6.344478386557645,0.0,-0.0,0.0,0x0000,0x0000
159,5.536435904999962,adis16470,0.0,0.0,0.0,0.0,0.0,0.0,0.08799999999999995,1.9760000000000002,-0.7450000000000004,0.0015358897417550091,0.034487706019407954,-0.013002702927357763,-0.28052227850764666,3.130598463423294,-6.370414285372576,0.0,-0.0,0.0,0x0000,0x0000
160,5.571283878999566,adis16470,0.0,0.0,0.0,0.0,0.0,0.0,0.08799999999999995,1.9760000000000002,-0.7450000000000004,0.0015358897417550091,0.034487706019407954,-0.013002702927357763,-0.2719065372779577,3.135469042146227,-6.396376081132714,0.0,-0.0,0.0,0x0000,0x0000
161,5.606092184999852,adis16470,0.0,0.0,0.0,0.0,0.0,0.0,0.08799999999999995,1.9760000000000002,-0.7450000000000004,0.0015358897417550091,0.034487706019407954,-0.013002702927357763,-0.26346653347978405,3.1401653562120106,-6.422308310077494,0.0,-0.0,0.0,0x0000,0x0000
162,5.6409051569999065,adis16470,0.0,0.0,0.0,0.0,0.0,0.0,0.08799999999999995,1.9760000000000002,-0.7450000000000004,0.0015358897417550091,0.034487706019407954,-0.013002702927357763,-0.25519494642074914,3.144776351650633,-6.448243850547486,0.0,-0.0,0.0,0x0000,0x0000
163,5.675673942999765,adis16470,0.0,0.0,0.0,0.0,0.0,0.0,0.08799999999999995,1.9760000000000002,-0.7450000000000004,0.0015358897417550091,0.034487706019407954,-0.013002702927357763,-0.24709259376943804,3.1492097400317416,-6.4741465409876255,0.0,-0.0,0.0,0x0000,0x0000
164,5.710473692999585,adis16470,0.0,0.0,0.0,0.0,0.0,0.0,0.08799999999999995,1.9760000000000002,-0.7450000000000004,0.0015358897417550091,0.034487706019407954,-0.013002702927357763,-0.2391496082631793,3.1536146367606412,-6.500072382302538,0.0,-0.0,0.0,0x0000,0x0000
165,5.745269961999838,adis16470,0.0,0.0,0.0,0.0,0.0,0.0,0.08799999999999995,1.9760000000000002,-0.7450000000000004,0.0015358897417550091,0.034487706019407954,-0.013002702927357763,-0.23136578585933387,3.157924623019039,-6.525995602707727,0.0,-0.0,0.0,0x0000,0x0000
166,5.780107916999896,adis16470,0.0,0.0,0.0,0.0,0.0,0.0,0.08799999999999995,1.9760000000000002,-0.7450000000000004,0.0015358897417550091,0.034487706019407954,-0.013002702927357763,-0.2237340321394396,3.1622294202558203,-6.55194998944262,0.0,-0.0,0.0,0x0000,0x0000
167,5.814925222999591,adis16470,0.0,0.0,0.0,0.0,0.0,0.0,0.08799999999999995,1.9760000000000002,-0.7450000000000004,0.0015358897417550091,0.034487706019407954,-0.013002702927357763,-0.21625670538865518,3.166407885366605,-6.577888896567582,0.0,-0.0,0.0,0x0000,0x0000
168,5.849723361999622,adis16470,0.0,0.0,0.0,0.0,0.0,0.0,0.08799999999999995,1.9760000000000002,-0.7450000000000004,0.0015358897417550091,0.034487706019407954,-0.013002702927357763,-0.20893059736648942,3.170465232827908,-6.603813358142518,0.0,-0.0,0.0,0x0000,0x0000
169,5.884494814999925,adis16470,0.0,0.0,0.0,0.0,0.0,0.0,0.08799999999999995,1.9760000000000002,-0.7450000000000004,0.0015358897417550091,0.034487706019407954,-0.013002702927357763,-0.20175329858953805,3.174390077891035,-6.629718062317704,0.0,-0.0,0.0,0x0000,0x0000
170,5.919256303999646,adis16470,0.0,0.0,0.0,0.0,0.0,0.0,0.08799999999999995,1.9760000000000002,-0.7450000000000004,0.0015358897417550091,0.034487706019407954,-0.013002702927357763,-0.194720403358715,3.1782171696951207,-6.655615358212637,0.0,-0.0,0.0,0x0000,0x0000
171,5.954058423999868,adis16470,0.0,0.0,0.0,0.0,0.0,0.0,0.08799999999999995,1.9760000000000002,-0.7450000000000004,0.0015358897417550091,0.034487706019407954,-0.013002702927357763,-0.18782466201506431,3.1820464007820966,-6.681542924202606,0.0,-0.0,0.0,0x0000,0x0000
172,5.988860951999868,adis16470,0.0,0.0,0.0,0.0,0.0,0.0,0.08799999999999995,1.9760000000000002,-0.7450000000000004,0.0015358897417550091,0.034487706019407954,-0.013002702927357763,-0.18106679712150034,3.1857999089806257,-6.707470821717457,0.0,-0.0,0.0,0x0000,0x0000
173,6.0236698879998585,adis16470,0.0,0.0,0.0,0.0,0.0,0.0,0.08799999999999995,1.9760000000000002,-0.7450000000000004,0.0015358897417550091,0.034487706019407954,-0.013002702927357763,-0.17444354017697383,3.1894906823935436,-6.733403464882599,0.0,-0.0,0.0,0x0000,0x0000
174,6.058473267999943,adis16470,0.0,0.0,0.0,0.0,0.0,0.0,0.08799999999999995,1.9760000000000002,-0.7450000000000004,0.0015358897417550091,0.034487706019407954,-0.013002702927357763,-0.16795322432992343,3.1930969529045083,-6.759331996392521,0.0,-0.0,0.0,0x0000,0x0000
175,6.093274980999922,adis16470,0.0,0.0,0.0,0.0,0.0,0.0,0.08799999999999995,1.9760000000000002,-0.7450000000000004,0.0015358897417550091,0.034487706019407954,-0.013002702927357763,-0.16159286175274945,3.1966277982438864,-6.785259258422655,0.0,-0.0,0.0,0x0000,0x0000
176,6.128072859999975,adis16470,0.0,0.0,0.0,0.0,0.0,0.0,0.08799999999999995,1.9760000000000002,-0.7450000000000004,0.0015358897417550091,0.034487706019407954,-0.013002702927357763,-0.15536003215560537,3.200080712591373,-6.811183706587733,0.0,-0.0,0.0,0x0000,0x0000
177,6.1628399789997275,adis16470,0.0,0.0,0.0,0.0,0.0,0.0,0.08799999999999995,1.9760000000000002,-0.7450000000000004,0.0015358897417550091,0.034487706019407954,-0.013002702927357763,-0.14925451672225815,3.2034048940839153,-6.837085196832691,0.0,-0.0,0.0,0x0000,0x0000
178,6.197603560999596,adis16470,0.0,0.0,0.0,0.0,0.0,0.0,0.08799999999999995,1.9760000000000002,-0.7450000000000004,0.0015358897417550091,0.034487706019407954,-0.013002702927357763,-0.14327141507614433,3.2066557774733426,-6.862984065422593,0.0,-0.0,0.0,0x0000,0x0000
179,6.232409051999639,adis16470,0.0,0.0,0.0,0.0,0.0,0.0,0.08799999999999995,1.9760000000000002,-0.7450000000000004,0.0015358897417550091,0.034487706019407954,-0.013002702927357763,-0.13740436123077773,3.2099227991356387,-6.888914156217624,0.0,-0.0,0.0,0x0000,0x0000
180,6.267206783999882,adis16470,0.0,0.0,0.0,0.0,0.0,0.0,0.08799999999999995,1.9760000000000002,-0.7450000000000004,0.0015358897417550091,0.034487706019407954,-0.013002702927357763,-0.1316553192370431,3.213109418423145,-6.914838452402616,0.0,-0.0,0.0,0x0000,0x0000
181,6.302057461999993,adis16470,0.0,0.0,0.0,0.0,0.0,0.0,0.08799999999999995,1.9760000000000002,-0.7450000000000004,0.0015358897417550091,0.034487706019407954,-0.013002702927357763,-0.12601666330222447,3.216335479042792,-6.940802441442597,0.0,-0.0,0.0,0x0000,0x0000
182,6.336972285999764,adis16470,0.0,0.0,0.0,0.0,0.0,0.0,0.08799999999999995,1.9760000000000002,-0.7450000000000004,0.0015358897417550091,0.034487706019407954,-0.013002702927357763,-0.12048527552816149,3.2196206297783516,-6.9668139860677565,0.0,-0.0,0.0,0x0000,0x0000
183,6.3718135329995675,adis16470,0.0,0.0,0.0,0.0,0.0,0.0,0.08799999999999995,1.9760000000000002,-0.7450000000000004,0.0015358897417550091,0.034487706019407954,-0.013002702927357763,-0.11507085932403159,3.222697630029236,-6.992770728492468,0.0,-0.0,0.0,0x0000,0x0000
184,6.406647760999931,adis16470,0.0,0.0,0.0,0.0,0.0,0.0,0.08799999999999995,1.9760000000000002,-0.7450000000000004,0.0015358897417550091,0.034487706019407954,-0.013002702927357763,-0.10976533512395335,3.2256995349157975,-7.018722255917448,0.0,-0.0,0.0,0x0000,0x0000
185,6.441462024999964,adis16470,0.0,0.0,0.0,0.0,0.0,0.0,0.08799999999999995,1.9760000000000002,-0.7450000000000004,0.0015358897417550091,0.034487706019407954,-0.013002702927357763,-0.10456767018257408,3.228602133763695,-7.044658676232622,0.0,-0.0,0.0,0x0000,0x0000
186,6.476276381999924,adis16470,0.0,0.0,0.0,0.0,0.0,0.0,0.08799999999999995,1.9760000000000002,-0.7450000000000004,0.0015358897417550091,0.034487706019407954,-0.013002702927357763,-0.09947391386774344,3.2314476837303534,-7.070595482457442,0.0,-0.0,0.0,0x0000,0x0000
187,6.511104090999652,adis16470,0.0,0.0,0.0,0.0,0.0,0.0,0.08799999999999995,1.9760000000000002,-0.7450000000000004,0.0015358897417550091,0.034487706019407954,-0.013002702927357763,-0.09448089077532733,3.2342619636303036,-7.096542153227626,0.0,-0.0,0.0,0x0000,0x0000
188,6.545919466999749,adis16470,0.0,0.0,0.0,0.0,0.0,0.0,0.08799999999999995,1.9760000000000002,-0.7450000000000004,0.0015358897417550091,0.034487706019407954,-0.013002702927357763,-0.08958879821069698,3.236995930088023,-7.122479580037658,0.0,-0.0,0.0,0x0000,0x0000
189,6.580740175999836,adis16470,0.0,0.0,0.0,0.0,0.0,0.0,0.08799999999999995,1.9760000000000002,-0.7450000000000004,0.0015358897417550091,0.034487706019407954,-0.013002702927357763,-0.0847940794728874,3.2396857264933647,-7.148421049962621,0.0,-0.0,0.0,0x0000,0x0000
190,6.615596681999705,adis16470,0.0,0.0,0.0,0.0,0.0,0.0,0.08799999999999995,1.9760000000000002,-0.7450000000000004,0.0015358897417550091,0.034487706019407954,-0.013002702927357763,-0.08009217435830453,3.2423909038458527,-7.174389133522665,0.0,-0.0,0.0,0x0000,0x0000
191,6.650410927999928,adis16470,0.0,0.0,0.0,0.0,0.0,0.0,0.08799999999999995,1.9760000000000002,-0.7450000000000004,0.0015358897417550091,0.034487706019407954,-0.013002702927357763,-0.07548795193466104,3.2449601400698374,-7.200325732637642,0.0,-0.0,0.0,0x0000,0x0000
192,6.685190727999725,adis16470,0.0,0.0,0.0,0.0,0.0,0.0,0.08799999999999995,1.9760000000000002,-0.7450000000000004,0.0015358897417550091,0.034487706019407954,-0.013002702927357763,-0.07097879415518446,3.247411072629667,-7.226236586787499,0.0,-0.0,0.0,0x0000,0x0000
193,6.72003073399992,adis16470,0.0,0.0,0.0,0.0,0.0,0.0,0.08799999999999995,1.9760000000000002,-0.7450000000000004,0.0015358897417550091,0.034487706019407954,-0.013002702927357763,-0.06655460330488219,3.249930114531442,-7.252192502262487,0.0,-0.0,0.0,0x0000,0x0000
194,6.7549066669998865,adis16470,0.0,0.0,0.0,0.0,0.0,0.0,0.08799999999999995,1.9760000000000002,-0.7450000000000004,0.0015358897417550091,0.034487706019407954,-0.013002702927357763,-0.0622158124154101,3.2524680221838578,-7.278175058192612,0.0,-0.0,0.0,0x0000,0x0000
195,6.78971972699992,adis16470,0.0,0.0,0.0,0.0,0.0,0.0,0.08799999999999995,1.9760000000000002,-0.7450000000000004,0.0015358897417550091,0.034487706019407954,-0.013002702927357763,-0.05796921942504184,3.2548334213118926,-7.30411077448244,0.0,-0.0,0.0,0x0000,0x0000
196,6.824502305999886,adis16470,0.0,0.0,0.0,0.0,0.0,0.0,0.08799999999999995,1.9760000000000002,-0.7450000000000004,0.0015358897417550091,0.034487706019407954,-0.013002702927357763,-0.05381019991186836,3.2570921961396677,-7.330023670677722,0.0,-0.0,0.0,0x0000,0x0000
197,6.859312643999601,adis16470,0.0,0.0,0.0,0.0,0.0,0.0,0.08799999999999995,1.9760000000000002,-0.7450000000000004,0.0015358897417550091,0.034487706019407954,-0.013002702927357763,-0.04973195391683911,3.259359840690292,-7.355957359077652,0.0,-0.0,0.0,0x0000,0x0000
198,6.894122444999994,adis16470,0.0,0.0,0.0,0.0,0.0,0.0,0.08799999999999995,1.9760000000000002,-0.7450000000000004,0.0015358897417550091,0.034487706019407954,-0.013002702927357763,-0.04573531440938224,3.261581198966728,-7.381890688387653,0.0,-0.0,0.0,0x0000,0x0000
199,6.928916393999771,adis16470,0.0,0.0,0.0,0.0,0.0,0.0,0.08799999999999995,1.9760000000000002,-0.7450000000000004,0.0015358897417550091,0.034487706019407954,-0.013002702927357763,-0.04181998270264289,3.2637272548403273,-7.407812139417581,0.0,-0.0,0.0,0x0000,0x0000
200,6.963726712999687,adis16470,0.0,0.0,0.0,0.0,0.0,0.0,0.08799999999999995,1.9760000000000002,-0.7450000000000004,0.0015358897417550091,0.034487706019407954,-0.013002702927357763,-0.037981541138037235,3.2658621962804792,-7.433745827072519,0.0,-0.0,0.0,0x0000,0x0000
201,6.998586961000001,adis16470,0.0,0.0,0.0,0.0,0.0,0.0,0.08799999999999995,1.9760000000000002,-0.7450000000000004,0.0015358897417550091,0.034487706019407954,-0.013002702927357763,-0.03421555140276943,3.2680513752084375,-7.4597168079377525,0.0,-0.0,0.0,0x0000,0x0000
202,7.033404632999918,adis16470,0.0,0.0,0.0,0.0,0.0,0.0,0.08799999999999995,1.9760000000000002,-0.7450000000000004,0.0015358897417550091,0.034487706019407954,-0.013002702927357763,-0.030528570723212117,3.2701139298789026,-7.485655918447597,0.0,-0.0,0.0,0x0000,0x0000
203,7.06820743399976,adis16470,0.0,0.0,0.0,0.0,0.0,0.0,0.08799999999999995,1.9760000000000002,-0.7450000000000004,0.0015358897417550091,0.034487706019407954,-0.013002702927357763,-0.026916602559636068,3.2721066510113803,-7.511584032757526,0.0,-0.0,0.0,0x0000,0x0000
204,7.102983029999905,adis16470,0.0,0.0,0.0,0.0,0.0,0.0,0.08799999999999995,1.9760000000000002,-0.7450000000000004,0.0015358897417550091,0.034487706019407954,-0.013002702927357763,-0.02337923104346537,3.2740065859774767,-7.537491783237681,0.0,-0.0,0.0,0x0000,0x0000
205,7.137784848999672,adis16470,0.0,0.0,0.0,0.0,0.0,0.0,0.08799999999999995,1.9760000000000002,-0.7450000000000004,0.0015358897417550091,0.034487706019407954,-0.013002702927357763,-0.01991033436117065,3.2759195523644795,-7.563419165957555,0.0,-0.0,0.0,0x0000,0x0000
206,7.172580686999936,adis16470,0.0,0.0,0.0,0.0,0.0,0.0,0.08799999999999995,1.9760000000000002,-0.7450000000000004,0.0015358897417550091,0.034487706019407954,-0.013002702927357763,-0.016511337795689963,3.2777825340380575,-7.589342037702704,0.0,-0.0,0.0,0x0000,0x0000
207,7.207381357999566,adis16470,0.0,0.0,0.0,0.0,0.0,0.0,0.08799999999999995,1.9760000000000002,-0.7450000000000004,0.0015358897417550091,0.034487706019407954,-0.013002702927357763,-0.013179902725071675,3.279617651878388,-7.61526852418757,0.0,-0.0,0.0,0x0000,0x0000
208,7.242183621999629,adis16470,0.0,0.0,0.0,0.0,0.0,0.0,0.08799999999999995,1.9760000000000002,-0.7450000000000004,0.0015358897417550091,0.034487706019407954,-0.013002702927357763,-0.009914957509443847,3.281419185095204,-7.641196210122626,0.0,-0.0,0.0,0x0000,0x0000
209,7.276984292999714,adis16470,0.0,0.0,0.0,0.0,0.0,0.0,0.08799999999999995,1.9760000000000002,-0.7450000000000004,0.0015358897417550091,0.034487706019407954,-0.013002702927357763,-0.006715445215083119,3.283181678357886,-7.667122738327728,0.0,-0.0,0.0,0x0000,0x0000
210,7.311785797999619,adis16470,0.0,0.0,0.0,0.0,0.0,0.0,0.08799999999999995,1.9760000000000002,-0.7450000000000004,0.0015358897417550091,0.034487706019407954,-0.013002702927357763,-0.003579856158171552,3.2849104263993327,-7.693049845397468,0.0,-0.0,0.0,0x0000,0x0000
211,7.346565222999743,adis16470,0.0,0.0,0.0,0.0,0.0,0.0,0.08799999999999995,1.9760000000000002,-0.7450000000000004,0.0015358897417550091,0.034487706019407954,-0.013002702927357763,-0.000508881422997401,3.286561878795587,-7.718960517022561,0.0,-0.0,0.0,0x0000,0x0000
212,7.381324591999601,adis16470,0.0,0.0,0.0,0.0,0.0,0.0,0.08799999999999995,1.9760000000000002,-0.7450000000000004,0.0015358897417550091,0.034487706019407954,-0.013002702927357763,0.002498945740353061,3.2881414989576707,-7.744856260337651,0.0,-0.0,0.0,0x0000,0x0000
213,7.416126646999601,adis16470,0.0,0.0,0.0,0.0,0.0,0.0,0.08799999999999995,1.9760000000000002,-0.7450000000000004,0.0015358897417550091,0.034487706019407954,-0.013002702927357763,0.0054502961349850955,3.289772154381377,-7.770783792057643,0.0,-0.0,0.0,0x0000,0x0000
214,7.450927646999844,adis16470,0.0,0.0,0.0,0.0,0.0,0.0,0.08799999999999995,1.9760000000000002,-0.7450000000000004,0.0015358897417550091,0.034487706019407954,-0.013002702927357763,0.00834252845226715,3.29136815177334,-7.796710537057486,0.0,-0.0,0.0,0x0000,0x0000
215,7.485720405999928,adis16470,0.0,0.0,0.0,0.0,0.0,0.0,0.08799999999999995,1.9760000000000002,-0.7450000000000004,0.0015358897417550091,0.034487706019407954,-0.013002702927357763,0.011176202142264453,3.2929161971000127,-7.822631114202508,0.0,-0.0,0.0,0x0000,0x0000
216,7.520493071999681,adis16470,0.0,0.0,0.0,0.0,0.0,0.0,0.08799999999999995,1.9760000000000002,-0.7450000000000004,0.0015358897417550091,0.034487706019407954,-0.013002702927357763,0.013951472815277111,3.2943944454140954,-7.848536750372663,0.0,-0.0,0.0,0x0000,0x0000
217,7.555257921999782,adis16470,0.0,0.0,0.0,0.0,0.0,0.0,0.08799999999999995,1.9760000000000002,-0.7450000000000004,0.0015358897417550091,0.034487706019407954,-0.013002702927357763,0.01667056721382657,3.295828064883012,-7.874436591187447,0.0,-0.0,0.0,0x0000,0x0000
218,7.590060644000005,adis16470,0.0,0.0,0.0,0.0,0.0,0.0,0.08799999999999995,1.9760000000000002,-0.7450000000000004,0.0015358897417550091,0.034487706019407954,-0.013002702927357763,0.019338541062545622,3.297306243828071,-7.900364605667754,0.0,-0.0,0.0,0x0000,0x0000
219,7.624861069999952,adis16470,0.0,0.0,0.0,0.0,0.0,0.0,0.08799999999999995,1.9760000000000002,-0.7450000000000004,0.0015358897417550091,0.034487706019407954,-0.013002702927357763,0.02195295897953014,3.298750447891887,-7.9262909230377145,0.0,-0.0,0.0,0x0000,0x0000
220,7.659667328999603,adis16470,0.0,0.0,0.0,0.0,0.0,0.0,0.08799999999999995,1.9760000000000002,-0.7450000000000004,0.0015358897417550091,0.034487706019407954,-0.013002702927357763,0.024515594766954963,3.3001771350115776,-7.952221613557502,0.0,-0.0,0.0,0x0000,0x0000
221,7.694469513999593,adis16470,0.0,0.0,0.0,0.0,0.0,0.0,0.08799999999999995,1.9760000000000002,-0.7450000000000004,0.0015358897417550091,0.034487706019407954,-0.013002702927357763,0.027026618562825903,3.3015672210139715,-7.978149200407589,0.0,-0.0,0.0,0x0000,0x0000
222,7.729271014000005,adis16470,0.0,0.0,0.0,0.0,0.0,0.0,0.08799999999999995,1.9760000000000002,-0.7450000000000004,0.0015358897417550091,0.034487706019407954,-0.013002702927357763,0.02948736910390854,3.302928320170762,-8.004076331317755,0.0,-0.0,0.0,0x0000,0x0000
223,7.76410505199965,adis16470,0.0,0.0,0.0,0.0,0.0,0.0,0.08799999999999995,1.9760000000000002,-0.7450000000000004,0.0015358897417550091,0.034487706019407954,-0.013002702927357763,0.03190172356100426,3.3043254950651604,-8.03002781404253,0.0,-0.0,0.0,0x0000,0x0000
224,7.798925441999927,adis16470,0.0,0.0,0.0,0.0,0.0,0.0,0.08799999999999995,1.9760000000000002,-0.7450000000000004,0.0015358897417550091,0.034487706019407954,-0.013002702927357763,0.034266607457482605,3.305668152147631,-8.055969073132689,0.0,-0.0,0.0,0x0000,0x0000
225,7.833795610999914,adis16470,0.0,0.0,0.0,0.0,0.0,0.0,0.08799999999999995,1.9760000000000002,-0.7450000000000004,0.0015358897417550091,0.034487706019407954,-0.013002702927357763,0.036588477044309946,3.307080137176162,-8.08194733488249,0.0,-0.0,0.0,0x0000,0x0000
226,7.868619036999917,adis16470,0.0,0.0,0.0,0.0,0.0,0.0,0.08799999999999995,1.9760000000000002,-0.7450000000000004,0.0015358897417550091,0.034487706019407954,-0.013002702927357763,0.03885987820936039,3.3083733675568525,-8.107890773842634,0.0,-0.0,0.0,0x0000,0x0000
227,7.903500705999704,adis16470,0.0,0.0,0.0,0.0,0.0,0.0,0.08799999999999995,1.9760000000000002,-0.7450000000000004,0.0015358897417550091,0.034487706019407954,-0.013002702927357763,0.04109089018179942,3.3097538779826863,-8.133877741662515,0.0,-0.0,0.0,0x0000,0x0000
228,7.938361615999838,adis16470,0.0,0.0,0.0,0.0,0.0,0.0,0.08799999999999995,1.9760000000000002,-0.7450000000000004,0.0015358897417550091,0.034487706019407954,-0.013002702927357763,0.04327546440679401,3.311065966884101,-8.159849008607432,0.0,-0.0,0.0,0x0000,0x0000
229,7.973206838999886,adis16470,0.0,0.0,0.0,0.0,0.0,0.0,0.08799999999999995,1.9760000000000002,-0.7450000000000004,0.0015358897417550091,0.034487706019407954,-0.013002702927357763,0.04541500878876411,3.312321761775163,-8.185808713897657,0.0,-0.0,0.0,0x0000,0x0000
230,8.008057710999765,adis16470,0.0,0.0,0.0,0.0,0.0,0.0,0.08799999999999995,1.9760000000000002,-0.7450000000000004,0.0015358897417550091,0.034487706019407954,-0.013002702927357763,0.04751225100514387,3.313563414799868,-8.211772641102614,0.0,-0.0,0.0,0x0000,0x0000
231,8.042877970999598,adis16470,0.0,0.0,0.0,0.0,0.0,0.0,0.08799999999999995,1.9760000000000002,-0.7450000000000004,0.0015358897417550091,0.034487706019407954,-0.013002702927357763,0.04956490046423753,3.314720777082193,-8.237713693827585,0.0,-0.0,0.0,0x0000,0x0000
232,8.077761195999756,adis16470,0.0,0.0,0.0,0.0,0.0,0.0,0.08799999999999995,1.9760000000000002,-0.7450000000000004,0.0015358897417550091,0.034487706019407954,-0.013002702927357763,0.05158193971304092,3.315977207244892,-8.263701764992655,0.0,-0.0,0.0,0x0000,0x0000
233,8.112624864999816,adis16470,0.0,0.0,0.0,0.0,0.0,0.0,0.08799999999999995,1.9760000000000002,-0.7450000000000004,0.0015358897417550091,0.034487706019407954,-0.013002702927357763,0.05355693416068888,3.3171702458955825,-8.289675115702558,0.0,-0.0,0.0,0x0000,0x0000
234,8.14739802999975,adis16470,0.0,0.0,0.0,0.0,0.0,0.0,0.08799999999999995,1.9760000000000002,-0.7450000000000004,0.0015358897417550091,0.034487706019407954,-0.013002702927357763,0.055484623654452135,3.3181641645879734,-8.315581040932704,0.0,-0.0,0.0,0x0000,0x0000
235,8.182221475000006,adis16470,0.0,0.0,0.0,0.0,0.0,0.0,0.08799999999999995,1.9760000000000002,-0.7450000000000004,0.0015358897417550091,0.034487706019407954,-0.013002702927357763,0.05737812267111603,3.319236181111575,-8.341524659437644,0.0,-0.0,0.0,0x0000,0x0000
236,8.217047049999564,adis16470,0.0,0.0,0.0,0.0,0.0,0.0,0.08799999999999995,1.9760000000000002,-0.7450000000000004,0.0015358897417550091,0.034487706019407954,-0.013002702927357763,0.059233909785381254,3.3202903068728733,-8.36746964352771,0.0,-0.0,0.0,0x0000,0x0000
237,8.251838641999711,adis16470,0.0,0.0,0.0,0.0,0.0,0.0,0.08799999999999995,1.9760000000000002,-0.7450000000000004,0.0015358897417550091,0.034487706019407954,-0.013002702927357763,0.061049647358767084,3.3212574730050597,-8.39338928346248,0.0,-0.0,0.0,0x0000,0x0000
238,8.286664660999577,adis16470,0.0,0.0,0.0,0.0,0.0,0.0,0.08799999999999995,1.9760000000000002,-0.7450000000000004,0.0015358897417550091,0.034487706019407954,-0.013002702927357763,0.06283206305368204,3.3222724994173496,-8.419334777877568,0.0,-0.0,0.0,0x0000,0x0000
239,8.321477956999843,adis16470,0.0,0.0,0.0,0.0,0.0,0.0,0.08799999999999995,1.9760000000000002,-0.7450000000000004,0.0015358897417550091,0.034487706019407954,-0.013002702927357763,0.06457771880108942,3.323242264073986,-8.445270669242577,0.0,-0.0,0.0,0x0000,0x0000
240,8.356278173999726,adis16470,0.0,0.0,0.0,0.0,0.0,0.0,0.08799999999999995,1.9760000000000002,-0.7450000000000004,0.0015358897417550091,0.034487706019407954,-0.013002702927357763,0.06628732720506307,3.324167164852404,-8.471196762367537,0.0,-0.0,0.0,0x0000,0x0000
241,8.391094761999739,adis16470,0.0,0.0,0.0,0.0,0.0,0.0,0.08799999999999995,1.9760000000000002,-0.7450000000000004,0.0015358897417550091,0.034487706019407954,-0.013002702927357763,0.06796445064802206,3.3251119021738904,-8.497137603512712,0.0,-0.0,0.0,0x0000,0x0000
242,8.425898868999866,adis16470,0.0,0.0,0.0,0.0,0.0,0.0,0.08799999999999995,1.9760000000000002,-0.7450000000000004,0.0015358897417550091,0.034487706019407954,-0.013002702927357763,0.06960637710768884,3.3260005933794057,-8.523064151832601,0.0,-0.0,0.0,0x0000,0x0000
243,8.460694326999601,adis16470,0.0,0.0,0.0,0.0,0.0,0.0,0.08799999999999995,1.9760000000000002,-0.7450000000000004,0.0015358897417550091,0.034487706019407954,-0.013002702927357763,0.07121500667258594,3.326861218370142,-8.548986740477696,0.0,-0.0,0.0,0x0000,0x0000
244,8.495485246999579,adis16470,0.0,0.0,0.0,0.0,0.0,0.0,0.08799999999999995,1.9760000000000002,-0.7450000000000004,0.0015358897417550091,0.034487706019407954,-0.013002702927357763,0.07279107073670402,3.327695808257261,-8.574905934902436,0.0,-0.0,0.0,0x0000,0x0000
245,8.530275426999651,adis16470,0.0,0.0,0.0,0.0,0.0,0.0,0.08799999999999995,1.9760000000000002,-0.7450000000000004,0.0015358897417550091,0.034487706019407954,-0.013002702927357763,0.07433555444517621,3.3285123798586564,-8.60082461900249,0.0,-0.0,0.0,0x0000,0x0000
246,8.565049106999595,adis16470,0.0,0.0,0.0,0.0,0.0,0.0,0.08799999999999995,1.9760000000000002,-0.7450000000000004,0.0015358897417550091,0.034487706019407954,-0.013002702927357763,0.0758477206900397,3.3292805596651607,-8.62673096888255,0.0,-0.0,0.0,0x0000,0x0000
247,8.599836008999773,adis16470,0.0,0.0,0.0,0.0,0.0,0.0,0.08799999999999995,1.9760000000000002,-0.7450000000000004,0.0015358897417550091,0.034487706019407954,-0.013002702927357763,0.07733079034327693,3.3300591252498934,-8.652647225027533,0.0,-0.0,0.0,0x0000,0x0000
248,8.634623614999782,adis16470,0.0,0.0,0.0,0.0,0.0,0.0,0.08799999999999995,1.9760000000000002,-0.7450000000000004,0.0015358897417550091,0.034487706019407954,-0.013002702927357763,0.07878426242104121,3.330823552517947,-8.678564032472444,0.0,-0.0,0.0,0x0000,0x0000
249,8.66941403499959,adis16470,0.0,0.0,0.0,0.0,0.0,0.0,0.08799999999999995,1.9760000000000002,-0.7450000000000004,0.0015358897417550091,0.034487706019407954,-0.013002702927357763,0.08020889825025403,3.3315779274835435,-8.704482854397735,0.0,-0.0,0.0,0x0000,0x0000
250,8.704231549999804,adis16470,0.0,0.0,0.0,0.0,0.0,0.0,0.08799999999999995,1.9760000000000002,-0.7450000000000004,0.0015358897417550091,0.034487706019407954,-0.013002702927357763,0.0816074083058727,3.332370363578788,-8.730422123592595,0.0,-0.0,0.0,0x0000,0x0000
251,8.739108732999739,adis16470,0.0,0.0,0.0,0.0,0.0,0.0,0.08799999999999995,1.9760000000000002,-0.7450000000000004,0.0015358897417550091,0.034487706019407954,-0.013002702927357763,0.08298308754694325,3.3332623535413433,-8.75640579031749,0.0,-0.0,0.0,0x0000,0x0000
252,8.773968192999746,adis16470,0.0,0.0,0.0,0.0,0.0,0.0,0.08799999999999995,1.9760000000000002,-0.7450000000000004,0.0015358897417550091,0.034487706019407954,-0.013002702927357763,0.0843297024355195,3.334101681921447,-8.782376060452448,0.0,-0.0,0.0,0x0000,0x0000
253,8.80877505799981,adis16470,0.0,0.0,0.0,0.0,0.0,0.0,0.08799999999999995,1.9760000000000002,-0.7450000000000004,0.0015358897417550091,0.034487706019407954,-0.013002702927357763,0.08564482534506648,3.334821838163888,-8.808306940947597,0.0,-0.0,0.0,0x0000,0x0000
254,8.843544181999732,adis16470,0.0,0.0,0.0,0.0,0.0,0.0,0.08799999999999995,1.9760000000000002,-0.7450000000000004,0.0015358897417550091,0.034487706019407954,-0.013002702927357763,0.08693041490103297,3.3354550429940963,-8.834209910762493,0.0,-0.0,0.0,0x0000,0x0000
255,8.878341602999626,adis16470,0.0,0.0,0.0,0.0,0.0,0.0,0.08799999999999995,1.9760000000000002,-0.7450000000000004,0.0015358897417550091,0.034487706019407954,-0.013002702927357763,0.088192731360615,3.336130343509475,-8.860133947687515,0.0,-0.0,0.0,0x0000,0x0000
256,8.913134486999752,adis16470,0.0,0.0,0.0,0.0,0.0,0.0,0.08799999999999995,1.9760000000000002,-0.7450000000000004,0.0015358897417550091,0.034487706019407954,-0.013002702927357763,0.08942941341103089,3.3367834238551186,-8.886054632112758,0.0,-0.0,0.0,0x0000,0x0000
257,8.947929907999878,adis16470,0.0,0.0,0.0,0.0,0.0,0.0,0.08799999999999995,1.9760000000000002,-0.7450000000000004,0.0015358897417550091,0.034487706019407954,-0.013002702927357763,0.09064158224982193,3.3374283922354597,-8.911977220757514,0.0,-0.0,0.0,0x0000,0x0000
258,8.982696919999853,adis16470,0.0,0.0,0.0,0.0,0.0,0.0,0.08799999999999995,1.9760000000000002,-0.7450000000000004,0.0015358897417550091,0.034487706019407954,-0.013002702927357763,0.0918270593582852,3.338005484582073,-8.937878658852684,0.0,-0.0,0.0,0x0000,0x0000
259,9.017464136999934,adis16470,0.0,0.0,0.0,0.0,0.0,0.0,0.08799999999999995,1.9760000000000002,-0.7450000000000004,0.0015358897417550091,0.034487706019407954,-0.013002702927357763,0.09298884132662455,3.338571358473136,-8.963780221362555,0.0,-0.0,0.0,0x0000,0x0000
260,9.052258982999774,adis16470,0.0,0.0,0.0,0.0,0.0,0.0,0.08799999999999995,1.9760000000000002,-0.7450000000000004,0.0015358897417550091,0.034487706019407954,-0.013002702927357763,0.09412977529624286,3.339179528271787,-8.989702409942476,0.0,-0.0,0.0,0x0000,0x0000
261,9.087050959999942,adis16470,0.0,0.0,0.0,0.0,0.0,0.0,0.08799999999999995,1.9760000000000002,-0.7450000000000004,0.0015358897417550091,0.034487706019407954,-0.013002702927357763,0.09524763824826983,3.3397698685349058,-9.01562241865275,0.0,-0.0,0.0,0x0000,0x0000
262,9.121842342999571,adis16470,0.0,0.0,0.0,0.0,0.0,0.0,0.08799999999999995,1.9760000000000002,-0.7450000000000004,0.0015358897417550091,0.034487706019407954,-0.013002702927357763,0.09634309280088882,3.3403472536590573,-9.041541985577615,0.0,-0.0,0.0,0x0000,0x0000
263,9.156627189999654,adis16470,0.0,0.0,0.0,0.0,0.0,0.0,0.08799999999999995,1.9760000000000002,-0.7450000000000004,0.0015358897417550091,0.034487706019407954,-0.013002702927357763,0.09741607770246175,3.3409005039608672,-9.067456710002535,0.0,-0.0,0.0,0x0000,0x0000
264,9.191389405999871,adis16470,0.0,0.0,0.0,0.0,0.0,0.0,0.08799999999999995,1.9760000000000002,-0.7450000000000004,0.0015358897417550091,0.034487706019407954,-0.013002702927357763,0.09846564965627126,3.3413988299217507,-9.093354560922696,0.0,-0.0,0.0,0x0000,0x0000
265,9.226182992999838,adis16470,0.0,0.0,0.0,0.0,0.0,0.0,0.08799999999999995,1.9760000000000002,-0.7450000000000004,0.0015358897417550091,0.034487706019407954,-0.013002702927357763,0.09949693560602302,3.341947938677013,-9.119275783237672,0.0,-0.0,0.0,0x0000,0x0000
266,9.260975358999985,adis16470,0.0,0.0,0.0,0.0,0.0,0.0,0.08799999999999995,1.9760000000000002,-0.7450000000000004,0.0015358897417550091,0.034487706019407954,-0.013002702927357763,0.10050748889917334,3.3424836640218256,-9.145196081752593,0.0,-0.0,0.0,0x0000,0x0000
267,9.295799076999629,adis16470,0.0,0.0,0.0,0.0,0.0,0.0,0.08799999999999995,1.9760000000000002,-0.7450000000000004,0.0015358897417550091,0.034487706019407954,-0.013002702927357763,0.10150055570679192,3.343069854072635,-9.17113991705261,0.0,-0.0,0.0,0x0000,0x0000
268,9.330594383999596,adis16470,0.0,0.0,0.0,0.0,0.0,0.0,0.08799999999999995,1.9760000000000002,-0.7450000000000004,0.0015358897417550091,0.034487706019407954,-0.013002702927357763,0.10247128712514422,3.3435887665843254,-9.19706237979268,0.0,-0.0,0.0,0x0000,0x0000
269,9.365392540999892,adis16470,0.0,0.0,0.0,0.0,0.0,0.0,0.08799999999999995,1.9760000000000002,-0.7450000000000004,0.0015358897417550091,0.034487706019407954,-0.013002702927357763,0.1034228465082331,3.344102748163654,-9.222986938217609,0.0,-0.0,0.0,0x0000,0x0000
270,9.400215494999884,adis16470,0.0,0.0,0.0,0.0,0.0,0.0,0.08799999999999995,1.9760000000000002,-0.7450000000000004,0.0015358897417550091,0.034487706019407954,-0.013002702927357763,0.1043575354468732,3.344654968618088,-9.24893016261765,0.0,-0.0,0.0,0x0000,0x0000
271,9.434994928999913,adis16470,0.0,0.0,0.0,0.0,0.0,0.0,0.08799999999999995,1.9760000000000002,-0.7450000000000004,0.0015358897417550091,0.034487706019407954,-0.013002702927357763,0.10526976157375545,3.345111512740951,-9.274840827537476,0.0,-0.0,0.0,0x0000,0x0000
272,9.469812345999799,adis16470,0.0,0.0,0.0,0.0,0.0,0.0,0.08799999999999995,1.9760000000000002,-0.7450000000000004,0.0015358897417550091,0.034487706019407954,-0.013002702927357763,0.10616703314789236,3.345632800757602,-9.30077991346258,0.0,-0.0,0.0,0x0000,0x0000
273,9.50465235699994,adis16470,0.0,0.0,0.0,0.0,0.0,0.0,0.08799999999999995,1.9760000000000002,-0.7450000000000004,0.0015358897417550091,0.034487706019407954,-0.013002702927357763,0.1070482821838058,3.346186840708014,-9.326735610652506,0.0,-0.0,0.0,0x0000,0x0000
274,9.539506403999894,adis16470,0.0,0.0,0.0,0.0,0.0,0.0,0.08799999999999995,1.9760000000000002,-0.7450000000000004,0.0015358897417550091,0.034487706019407954,-0.013002702927357763,0.10791313921230117,3.3467574857144315,-9.352701959107605,0.0,-0.0,0.0,0x0000,0x0000
275,9.57434609999973,adis16470,0.0,0.0,0.0,0.0,0.0,0.0,0.08799999999999995,1.9760000000000002,-0.7450000000000004,0.0015358897417550091,0.034487706019407954,-0.013002702927357763,0.10875944059988187,3.3472884587675247,-9.378657435777491,0.0,-0.0,0.0,0x0000,0x0000
276,9.609198406999894,adis16470,0.0,0.0,0.0,0.0,0.0,0.0,0.08799999999999995,1.9760000000000002,-0.7450000000000004,0.0015358897417550091,0.034487706019407954,-0.013002702927357763,0.10958992112534938,3.347833628351619,-9.404622459622708,0.0,-0.0,0.0,0x0000,0x0000
277,9.644004656999641,adis16470,0.0,0.0,0.0,0.0,0.0,0.0,0.08799999999999995,1.9760000000000002,-0.7450000000000004,0.0015358897417550091,0.034487706019407954,-0.013002702927357763,0.11039980568250693,3.3482783826915994,-9.430553046587574,0.0,-0.0,0.0,0x0000,0x0000
278,9.678843240999868,adis16470,0.0,0.0,0.0,0.0,0.0,0.0,0.08799999999999995,1.9760000000000002,-0.7450000000000004,0.0015358897417550091,0.034487706019407954,-0.013002702927357763,0.11119628913927541,3.3487770381189854,-9.456507792412735,0.0,-0.0,0.0,0x0000,0x0000
279,9.7136182309996,adis16470,0.0,0.0,0.0,0.0,0.0,0.0,0.08799999999999995,1.9760000000000002,-0.7450000000000004,0.0015358897417550091,0.034487706019407954,-0.013002702927357763,0.11197136323725589,3.349142676497442,-9.48241520093744,0.0,-0.0,0.0,0x0000,0x0000
280,9.748413331999927,adis16470,0.0,0.0,0.0,0.0,0.0,0.0,0.08799999999999995,1.9760000000000002,-0.7450000000000004,0.0015358897417550091,0.034487706019407954,-0.013002702927357763,0.11273266548277898,3.3495398401526066,-9.508337551182684,0.0,-0.0,0.0,0x0000,0x0000
281,9.78326191699989,adis16470,0.0,0.0,0.0,0.0,0.0,0.0,0.08799999999999995,1.9760000000000002,-0.7450000000000004,0.0015358897417550091,0.034487706019407954,-0.013002702927357763,0.11348335250493835,3.350032594436672,-9.534299732852467,0.0,-0.0,0.0,0x0000,0x0000
282,9.818140483999741,adis16470,0.0,0.0,0.0,0.0,0.0,0.0,0.08799999999999995,1.9760000000000002,-0.7450000000000004,0.0015358897417550091,0.034487706019407954,-0.013002702927357763,0.11422162109325952,3.3505737700651865,-9.56028433455264,0.0,-0.0,0.0,0x0000,0x0000
283,9.852925954999591,adis16470,0.0,0.0,0.0,0.0,0.0,0.0,0.08799999999999995,1.9760000000000002,-0.7450000000000004,0.0015358897417550091,0.034487706019407954,-0.013002702927357763,0.11493707820404328,3.350923450533364,-9.586199428497716,0.0,-0.0,0.0,0x0000,0x0000
284,9.887753464999605,adis16470,0.0,0.0,0.0,0.0,0.0,0.0,0.08799999999999995,1.9760000000000002,-0.7450000000000004,0.0015358897417550091,0.034487706019407954,-0.013002702927357763,0.11564186584555264,3.351347864593677,-9.612145964422632,0.0,-0.0,0.0,0x0000,0x0000
285,9.922583511999619,adis16470,0.0,0.0,0.0,0.0,0.0,0.0,0.08799999999999995,1.9760000000000002,-0.7450000000000004,0.0015358897417550091,0.034487706019407954,-0.013002702927357763,0.11633276695249466,3.351768488273777,-9.638094307717745,0.0,-0.0,0.0,0x0000,0x0000
286,9.957413966999866,adis16470,0.0,0.0,0.0,0.0,0.0,0.0,0.08799999999999995,1.9760000000000002,-0.7450000000000004,0.0015358897417550091,0.034487706019407954,-0.013002702927357763,0.11700990436847229,3.3521819194621014,-9.664043120362637,0.0,-0.0,0.0,0x0000,0x0000
287,9.992272736999894,adis16470,0.0,0.0,0.0,0.0,0.0,0.0,0.08799999999999995,1.9760000000000002,-0.7450000000000004,0.0015358897417550091,0.034487706019407954,-0.013002702927357763,0.11767591711948792,3.3526413789893246,-9.690012822062508,0.0,-0.0,0.0,0x0000,0x0000
