sample,time_s,sensor,accel_x_g,accel_y_g,accel_z_g,accel_x_mps2,accel_y_mps2,accel_z_mps2,gyro_x_dps,gyro_y_dps,gyro_z_dps,gyro_x_radps,gyro_y_radps,gyro_z_radps,roll_deg,pitch_deg,yaw_deg,accel_roll_deg,accel_pitch_deg,temp_c,diag_stat,prod_id
0,0.0002445530003569729,adis16470,0.0,0.0,0.0,0.0,0.0,0.0,0.031000000000000014,0.024000000000000007,0.02600000000000001,0.0005410520681182424,0.0004188790204786392,0.00045378560551852584,0.0,-0.0,0.0,0.0,-0.0,0.0,0x0000,0x0000
1,0.03521216800027105,adis16470,0.0,0.0,0.0,0.0,0.0,0.0,0.031000000000000014,0.024000000000000007,0.02600000000000001,0.0005410520681182424,0.0004188790204786392,0.00045378560551852584,0.0010622689027996336,0.0008224017311997162,0.0009091175599996862,0.0,-0.0,0.0,0x0000,0x0000
2,0.07017029799999364,adis16470,0.0,0.0,0.0,0.0,0.0,0.0,0.031000000000000014,0.024000000000000007,0.02600000000000001,0.0005410520681182424,0.0004188790204786392,0.00045378560551852584,0.002103018278421314,0.0016281431832939203,0.001818000495997695,0.0,-0.0,0.0,0x0000,0x0000
3,0.10500355500016667,adis16470,0.0,0.0,0.0,0.0,0.0,0.0,0.031000000000000014,0.024000000000000007,0.02600000000000001,0.0005410520681182424,0.0004188790204786392,0.00045378560551852584,0.003119192290897824,0.002414858547791863,0.002723665204001919,0.0,-0.0,0.0,0x0000,0x0000
4,0.13981997900009446,adis16470,0.0,-0.0175,0.98875,0.0,-0.17161637500000002,9.6963251875,0.031000000000000014,0.024000000000000007,0.02600000000000001,0.0005410520681182424,0.0004188790204786392,0.00045378560551852584,-0.016165049247031917,0.003185438871231591,0.003628886923997017,-1.0139787227853019,-0.0,24.3,0x0000,0x0000
5,0.1746576069999719,adis16470,-3.52625,-0.87375,0.9625,-34.5806995625,-8.5685604375,9.438900625,0.43100000000000005,-1.076,53.42600000000001,0.007522369076095561,-0.018779742751458987,0.9324596061704906,-0.8457855003522403,1.3616613427924502,1.8648610085967943,-42.23292228757573,69.76375678106089,24.400000000000002,0x0000,0x4056
6,0.20948579000014433,adis16470,-0.03625,0.075,0.9975,-0.35549106249999995,0.73549875,9.782133375,-0.5690000000000001,0.024000000000000007,18.226,-0.009930923443847736,0.0004188790204786392,0.3181037094684865,-0.7622934052715489,1.3767554458035978,2.4996388158205876,4.299862820192069,2.07540859247771,24.5,0x0000,0x4056
7,0.2443045479999455,adis16470,-0.00375,0.00875,1.0050000000000001,-0.03677493749999999,0.08580818750000001,9.85568325,-0.06899999999999999,0.22400000000000003,-6.774000000000001,-0.0012042771838760872,0.003909537524467299,-0.1182286035300959,-0.7394253515604847,1.3611393567302255,2.263777057177642,0.4988312475051259,0.21378112752544443,24.6,0x0000,0x4056
8,0.2791186760000528,adis16470,-0.005,0.01125,1.00375,-0.04903325,0.1103248125,9.843424937499998,0.031000000000000014,-0.076,-10.274000000000001,0.0005410520681182424,-0.0013264502315156904,-0.17931512734989744,-0.7107363419297654,1.3370313812917405,1.9060968910392557,0.6421424968857137,0.2853883304453902,24.400000000000002,0x0000,0x4056
9,0.3139324339999803,adis16470,0.00375,0.005,0.99875,0.03677493749999999,0.04903325,9.7943916875,0.031000000000000014,-0.176,-17.474,0.0005410520681182424,-0.00307177948351002,-0.30497883349348914,-0.6897272558469079,1.2999834965322719,1.2977519002064564,0.28683504810786925,-0.21512437660030614,23.900000000000002,0x0000,0x4056
10,0.3487488580003628,adis16470,0.0,-0.0025,0.995,0.0,-0.024516625,9.757616749999999,-0.269,-0.176,-13.274000000000001,-0.004694935687864747,-0.00307177948351002,-0.2316750049097273,-0.6879901072171628,1.2679787473984572,0.8356031215488191,-0.14395894207200274,-0.0,24.400000000000002,0x0000,0x4056
11,0.38359454100009316,adis16470,-0.00125,0.0025,0.9975,-0.0122583125,0.024516625,9.782133375,-0.06899999999999999,0.32400000000000007,-7.474,-0.0012042771838760872,0.005654866776461629,-0.1304459082940562,-0.6737146060554902,1.2551193471886062,0.5751666213394118,0.14359814423120423,0.07179895936716037,24.1,0x0000,0x4056
12,0.4184679090003556,adis16470,0.0,0.0075,1.01,0.0,0.07354987499999999,9.9047165,0.131,0.12400000000000001,-0.374,0.002286381320112572,0.002164208272472969,-0.0065275314024587925,-0.6472541531653684,1.234254771924226,0.5621239817073136,0.42545588925690947,-0.0,24.8,0x0000,0x4056
13,0.4532855370002835,adis16470,0.00625,0.00875,1.0,0.0612915625,0.08580818750000001,9.80665,0.531,0.7240000000000001,-16.874000000000002,0.00926769832808989,0.012636183784438948,-0.2945068579815232,-0.6061641574211062,1.2271118883413232,-0.025388993766079948,0.5013252767618416,-0.35808025218322936,24.6,0x0000,0x4056
14,0.4881225720000657,adis16470,-0.08875,0.02875,1.01,-0.8703401874999999,0.2819411875,9.9047165,9.531,-8.076,-17.374000000000002,0.16634733100757956,-0.14095279039106207,-0.30323350424149487,-0.23604017379942915,1.0272477287837976,-0.6306466669185851,1.6305039278868831,5.019732588409208,24.6,0x0000,0x4056
15,0.5229348480002045,adis16470,-0.03875,0.11125,0.995,-0.38000768749999997,1.0909898125,9.757616749999999,12.331000000000001,0.42400000000000004,-22.174000000000003,0.2152165500634208,0.0074001960284559585,-0.3870093083372227,0.3169596431715926,1.0654968661730178,-1.4025748953749866,6.379689726357203,2.2164439833620424,24.5,0x0000,0x4056
16,0.5577533650002806,adis16470,-0.0275,0.1775,0.9925,-0.269682875,1.7406803749999997,9.733100125,52.731,-0.976,-20.874000000000002,0.9203295678691299,-0.017034413499464655,-0.3643200280612964,2.312700841066739,1.042131020176481,-2.1293735298772765,10.139656167177117,1.5623582453936802,24.200000000000003,0x0000,0x4056
17,0.5925657150000916,adis16470,-0.04625,0.11375,1.0375,-0.45355756249999996,1.1155064375,10.174399375,49.731,-1.976,-12.774000000000001,0.8679696903093,-0.034487706019407954,-0.22294835864975568,4.0882105843970615,1.0046205177704794,-2.5740662588452934,6.256835955671614,2.5372751334445267,24.3,0x0000,0x4056
18,0.6273583070001223,adis16470,0.055,0.28875,1.1925000000000001,0.53936575,2.8316701875,11.694430125,71.531,-2.7760000000000002,-21.074,1.2484514672440639,-0.04845034003536259,-0.36781068656528504,6.717663660642303,0.8385423697608956,-3.30728922027685,13.611523452658277,-2.566634320035938,25.0,0x0000,0x4056
19,0.6621870270000727,adis16470,-0.07125000000000001,0.19875,1.045,-0.6987238125,1.9490716875,10.24794925,77.63100000000001,-10.976,-8.674000000000001,1.3549165516157182,-0.19156733869889764,-0.15138985931798818,9.448388435711175,0.5237781245100713,-3.609392904353227,10.768550347204652,3.8320123512470676,24.400000000000002,0x0000,0x4056
20,0.6970293210001728,adis16470,0.0225,0.215,0.9325,0.220649625,2.10842975,9.144701125,92.43100000000001,-1.6760000000000002,-3.0740000000000003,1.613225280910879,-0.029251718263424965,-0.05365142120630569,12.6752083669986,0.42913677249673576,-3.7164988569426898,12.983397724209278,-1.3468811318310634,24.6,0x0000,0x4056
21,0.7318538570002602,adis16470,-0.01625,0.37875000000000003,1.17625,-0.1593580625,3.7142686875,11.5350720625,54.631,-3.576,-16.674,0.9534908236570222,-0.062412974051317224,-0.2910161994775345,14.643114428416784,0.3135807945249595,-4.2971606857856735,17.848448213454752,0.7534062616482937,24.400000000000002,0x0000,0x4056
22,0.7666547070002707,adis16470,0.04125,0.41375,1.14125,0.4045243125,4.0575014375,11.1918393125,80.33100000000002,-5.776000000000001,-12.674000000000001,1.402040441419565,-0.10081021759519249,-0.22120302939776135,17.488469041076584,0.07139683681667389,-4.73822478293059,19.92766063662627,-1.9461832081101753,24.400000000000002,0x0000,0x4056
23,0.80147848300021,adis16470,-0.055,0.21875,0.8425,-0.53936575,2.1452046874999997,8.262102624999999,76.23100000000001,0.924,-20.174000000000003,1.3304819420877976,0.016126842288427607,-0.3521027232973361,20.031369701672933,0.17381321242974274,-5.440762262582326,14.555104333447863,3.6155284493967526,24.6,0x0000,0x4056
24,0.8362934260003385,adis16470,-0.01125,0.1325,0.92625,-0.1103248125,1.299381125,9.0834095625,71.43100000000001,-5.5760000000000005,-16.774,1.2467061379920696,-0.09731955909120382,-0.2927615287295289,22.230679360350756,-0.006130718623590386,-6.024745633910225,8.1409271753975,0.6888542088088583,24.3,0x0000,0x4056
25,0.871058166000239,adis16470,0.0375,0.29125,0.995,0.367749375,2.8561868125,9.757616749999999,83.13100000000001,-9.476,-12.174000000000001,1.4509096604754064,-0.16538739991898269,-0.21247638313778971,24.944597649625816,-0.37028016444955764,-6.447970896926687,16.31546948935318,-2.071525876288325,24.3,0x0000,0x4056
26,0.9058936080000421,adis16470,0.00625,0.37125,0.89625,0.0612915625,3.6407188125,8.789210062499999,81.73100000000001,-10.076000000000002,-8.674000000000001,1.4264750509474857,-0.17585937543094868,-0.15138985931798818,27.685926944085356,-0.7142410776437857,-6.75013529032999,22.500605394851174,-0.3691313384967017,24.400000000000002,0x0000,0x4056
27,0.9407804950001264,adis16470,0.051250000000000004,0.29875,0.83125,0.5025908125,2.9297366875,8.1517778125,64.23100000000001,-4.276,-6.074000000000001,1.121042431848478,-0.07463027881527753,-0.10601129876613559,29.723583464855228,-0.9125617481459305,-6.962038685368574,19.76836092307221,-3.3206191957598423,24.8,0x0000,0x4056
28,0.975606400000288,adis16470,0.00875,0.5425,0.83875,0.08580818750000001,5.3201076249999995,8.2253276875,59.431000000000004,-10.676000000000002,-12.474,1.03726662775275,-0.18633135094291467,-0.21771237089377268,31.81533707452579,-1.2687114356988005,-7.396454729126172,32.894620134744294,-0.5018756532345147,24.3,0x0000,0x4056
29,1.0104268430000047,adis16470,-0.0475,0.615,0.8250000000000001,-0.465815875,6.03108975,8.09048625,79.83100000000002,1.024,-0.074,1.3933137951595935,0.017872171540421936,-0.0012915436464758037,34.63724899240077,-1.1555348921125146,-7.399031447384161,36.70285503016313,2.6429614826313412,24.400000000000002,0x0000,0x4056
30,1.045255138000357,adis16470,0.0375,0.56125,0.78125,0.367749375,5.5039823125,7.6614453125,58.331,1.7240000000000002,1.826,1.0180680059808125,0.030089476304382246,0.031869712141416456,36.64930591712864,-1.11823010222056,-7.335435150532213,35.69346653663781,-2.2324425896643865,24.400000000000002,0x0000,0x4056
31,1.080088184000033,adis16470,0.23125,0.72,0.20750000000000002,2.2677878125,7.060788,2.034879875,61.531,-0.476,6.426,1.0739185420446309,-0.008307767239493008,0.11215485773315562,39.49523304338308,-1.4551396583412748,-7.1115978812685965,73.92331244181467,-17.15126152352167,24.400000000000002,0x0000,0x4056
32,1.1149610810002741,adis16470,0.08625000000000001,0.895,0.17,0.8458235625,8.77695175,1.6671305,91.63100000000001,-13.976,-2.0740000000000003,1.5992626468949243,-0.24392721625872751,-0.0361981286863624,43.42176721991388,-2.0118420569597455,-7.183924425197338,79.24512229904975,-5.408411412091953,24.400000000000002,0x0000,0x4056
33,1.1498078670001632,adis16470,0.00375,0.6950000000000001,0.71125,0.03677493749999999,6.81562175,6.9749798125,51.331,-8.576,-10.174000000000001,0.8958949583412094,-0.1496794366510337,-0.1775697980979031,45.19303859957699,-2.26879585212268,-7.538456002398855,44.33794490395152,-0.21606046677441437,24.400000000000002,0x0000,0x4056
34,1.1846077469999727,adis16470,0.005,0.7425,0.6687500000000001,0.04903325,7.281437625,6.5581971875,56.931000000000004,-4.376,-6.774000000000001,0.9936333964528918,-0.07637560806727187,-0.1182286035300959,47.1905733975102,-2.378392099412994,-7.774190132105207,47.99147805671843,-0.28668689568258304,24.5,0x0000,0x4056
35,1.2194268110001758,adis16470,0.00375,0.75625,0.6675,0.03677493749999999,7.416279062499999,6.545938874999999,43.531,1.824,0.22600000000000003,0.7597592766856516,0.03183480555637657,0.0039444441095071855,48.703489709010256,-2.2728448267804184,-7.766321052795161,48.566939057315004,-0.21300560236237528,24.700000000000003,0x0000,0x4056
36,1.254261616000349,adis16470,-0.00125,0.77625,0.62875,-0.0122583125,7.6124120625,6.1659311875,41.331,11.624,-0.874,0.7213620331417764,0.2028770722518209,-0.015254177662430441,50.160251278423374,-1.8291305380973903,-7.796766834055192,50.993084566783615,0.07169534311061815,24.3,0x0000,0x4056
37,1.2890789400003086,adis16470,0.00125,0.78,0.61625,0.0122583125,7.6491869999999995,6.043348062499999,31.931,-5.276000000000001,-4.474,0.5573010834543094,-0.09208357133522084,-0.0780860307342263,51.280337458185215,-1.9740101947831845,-7.9525387139395916,51.689003062033834,-0.07204732964355645,24.400000000000002,0x0000,0x4056
38,1.3239488000003803,adis16470,-0.00375,0.7875,0.60875,-0.03677493749999999,7.722736874999999,5.9697981874999995,30.131,-7.376,-6.174,0.5258851569184114,-0.12873548562710174,-0.10775662801812991,52.330294267388226,-2.1822700697480992,-8.16782626063836,52.295407524838964,0.2158606954640809,24.400000000000002,0x0000,0x4056
39,1.3588156230002824,adis16470,-0.00375,0.80625,0.6062500000000001,-0.03677493749999999,7.9066115625,5.9452815625,24.431,0.024000000000000007,-0.074,0.42640138955473467,0.0004188790204786392,-0.0012915436464758037,53.17966561672345,-2.133544713889105,-8.170406406872372,53.059103902870966,0.21299431818543274,24.400000000000002,0x0000,0x4056
40,1.3936388360002638,adis16470,-0.0025,0.8225,0.57125,-0.024516625,8.065969625,5.6020488125,25.431,0.12400000000000001,-0.074,0.443854682074678,0.002164208272472969,-0.0012915436464758037,54.08832498771783,-2.083781382327944,-8.172983316420357,55.21890512556497,0.14303669641820058,24.3,0x0000,0x4056
41,1.428453159000128,adis16470,-0.00125,0.81625,0.56625,-0.0122583125,8.0046780625,5.5530155625,15.331000000000001,-0.776,-1.1740000000000002,0.2675764276232507,-0.013543754995475998,-0.02049016541841343,54.6346258466131,-2.0671395404860484,-8.213855418498346,55.2501314325449,0.07209334129450588,24.400000000000002,0x0000,0x4056
42,1.4632679280002776,adis16470,-0.00375,0.82125,0.56375,-0.03677493749999999,8.053711312499999,5.528498937499999,20.931,-4.0760000000000005,-0.874,0.36531486573493316,-0.07113962031128888,-0.015254177662430441,55.36670823426965,-2.1605491748517314,-8.244283396378265,55.5322094797566,0.21569390609112654,24.400000000000002,0x0000,0x4056
43,1.498080862000279,adis16470,0.0075,0.8425,0.53125,0.07354987499999999,8.262102624999999,5.209782812499999,21.531,0.32400000000000007,0.126,0.3757868412468991,0.005654866776461629,0.0021991148575128553,56.14925813037702,-2.1149130519504507,-8.239896973498249,57.76595319479364,-0.43143231266956167,24.6,0x0000,0x4056
44,1.5329154450000715,adis16470,0.00875,0.84125,0.5375,0.08580818750000001,8.2498443125,5.2710743749999995,20.931,-2.576,-1.274,0.36531486573493316,-0.04495968153137393,-0.02223549467040776,56.88930640069023,-2.170598532446394,-8.28427672655255,57.424263523745786,-0.5021776972137397,24.5,0x0000,0x4056
45,1.5677376950002326,adis16470,-0.0275,0.8462500000000001,0.53,-0.269682875,8.2988775625,5.1975245,26.931,-3.8760000000000003,-3.1740000000000004,0.4700346208545929,-0.06764896180730022,-0.055396750458300024,57.82938341560221,-2.2279057376463367,-8.394801725985651,57.941396205233566,1.5775730261867165,24.400000000000002,0x0000,0x4056
46,1.6025573150000127,adis16470,-0.01,0.84875,0.525,-0.0980665,8.3233941875,5.14849125,17.730999999999998,1.324,0.6260000000000001,0.30946432967111454,0.023108159296404925,0.010925761117484506,58.4430544516543,-2.126686527576256,-8.37300455121763,58.26085920418485,0.5740874970874917,24.6,0x0000,0x4056
47,1.63736137900014,adis16470,-0.0325,0.86875,0.5,-0.318716125,8.5195271875,4.903325,25.931,15.024,7.8260000000000005,0.4525813283346496,0.26221826681962807,0.13658946726107624,59.360202527478144,-1.5345742774182527,-8.100628666344138,60.07787014393645,1.8570770891115107,24.400000000000002,0x0000,0x4056
48,1.6722189800002525,adis16470,-0.00625,0.8675,0.495,-0.0612915625,8.507268875,4.85429175,19.831,4.724,3.326,0.3461162439629955,0.08244935386421214,0.0580496509213314,60.056249311353746,-1.3353380201630383,-7.984692102488186,60.29069509060801,0.3585278050898073,24.3,0x0000,0x4056
49,1.7070461370003613,adis16470,-0.0025,0.875,0.48875,-0.024516625,8.580818749999999,4.7930001875,13.131000000000002,-0.176,0.32600000000000007,0.22917918407937546,-0.00307177948351002,0.005689773361501516,60.51956385854311,-1.3117798910767704,-7.9733384493061505,60.813522140968374,0.14291783611929915,24.700000000000003,0x0000,0x4056
50,1.7418537390003621,adis16470,0.0,0.87625,0.47500000000000003,0.0,8.593077062499999,4.65815875,11.531,-0.5760000000000001,-0.174,0.20125391604746615,-0.01005309649148734,-0.0030368728984701333,60.93328268803862,-1.3051923941640056,-7.979394942996142,61.538643217083,-0.0,24.400000000000002,0x0000,0x4056
51,1.7767452279999816,adis16470,-0.00125,0.875,0.47875,-0.0122583125,8.580818749999999,4.6949336875,8.431000000000001,-3.076,-1.974,0.14714870923564194,-0.05368632779134558,-0.03445279943436806,61.22920566852699,-1.3828325205476626,-8.048270998902268,61.31504096276988,0.07180566881873329,24.5,0x0000,0x4056
52,1.8115781810001863,adis16470,-0.01875,0.88125,0.4825,-0.1838746875,8.6421103125,4.731708625,12.531,0.22400000000000003,0.926,0.21870720856740944,0.003909537524467299,0.016161748873467493,61.658353735891474,-1.3261462651672984,-8.016015683498509,61.29851345478514,1.069153745369403,24.400000000000002,0x0000,0x4056
53,1.8463887830002932,adis16470,-0.005,0.885,0.47000000000000003,-0.04903325,8.67888525,4.6091255,14.231000000000002,1.9240000000000002,1.1260000000000001,0.24837780585131305,0.0335801348083709,0.019652407377456153,62.1512352910712,-1.2282697150799555,-7.976819071758591,62.02841541861858,0.2858874839667152,24.6,0x0000,0x4056
54,1.8812410880000243,adis16470,-0.00125,0.885,0.45125,-0.0122583125,8.67888525,4.4252508125,8.031,2.4240000000000004,2.726,0.1401673922276646,0.042306781068342555,0.04757767540936542,62.44218361295882,-1.1194697622684668,-7.881811336674084,62.983556410133076,0.07209522468840848,24.400000000000002,0x0000,0x4056
55,1.9160707999999431,adis16470,0.0075,0.88125,0.45375,0.07354987499999999,8.6421103125,4.449767437499999,2.4310000000000005,-0.676,-0.674,0.04242895411598216,-0.011798425743481668,-0.011763519158441782,62.53144447102124,-1.1288247759461474,-7.90528653829798,62.75635034065408,-0.4335222583336365,24.5,0x0000,0x4056
56,1.9509123090001594,adis16470,0.0,0.88375,0.46625,0.0,8.6666269375,4.5723505625,4.031,-3.3760000000000003,-0.874,0.07035422214789142,-0.058922315547328574,-0.015254177662430441,62.6621467875301,-1.2215205904018451,-7.935737983952123,62.184707785982795,-0.0,24.400000000000002,0x0000,0x4056
57,1.9857146510003076,adis16470,-0.00125,0.88875,0.45625,-0.0122583125,8.7156601875,4.4742840625,4.731,-0.876,-0.674,0.08257152691185173,-0.015289084247470327,-0.011763519158441782,62.826776233245,-1.2255334631446215,-7.959194738196173,62.825783298643664,0.07168995520651865,24.6,0x0000,0x4056
58,2.0205490490002376,adis16470,0.03875,0.885,0.45625,0.38000768749999997,8.67888525,4.4742840625,-1.7690000000000001,-2.2760000000000002,-1.1740000000000002,-0.030874874467779694,-0.03972369377539094,-0.02049016541841343,62.76439561991387,-1.3232945435202192,-8.000090407150251,62.72723234744546,-2.228707938112993,24.1,0x0000,0x4056
59,2.055364370999996,adis16470,-0.005,0.8775000000000001,0.4475,-0.04903325,8.605335375,4.388475875,0.131,0.524,0.22600000000000003,0.002286381320112572,0.009145525280450288,0.0039444441095071855,62.77317158017362,-1.2731336014557173,-7.9922221360162915,62.97971384348129,0.2908334020254455,24.6,0x0000,0x4056
60,2.0902309450002576,adis16470,0.005,0.90375,0.43,0.04903325,8.8627599375,4.2168595,0.33100000000000007,0.024000000000000007,-0.474,0.005777039824101232,0.0004188790204786392,-0.008272860654453122,62.82012044857705,-1.25257563753084,-8.008748875028381,64.55511462052026,-0.2862384539000716,24.400000000000002,0x0000,0x4056
61,2.125049131000196,adis16470,0.0575,0.875,0.4925,0.563882375,8.580818749999999,4.829775124999999,6.331,0.024000000000000007,-2.0740000000000003,0.11049679494376101,0.0004188790204786392,-0.0361981286863624,62.992277266660686,-1.2922558651865639,-8.080961753385727,60.62670440428379,-3.2775331847086626,24.3,0x0000,0x4056
62,2.1598602430003666,adis16470,-0.11,0.89625,0.40375,-1.0787315,8.789210062499999,3.9594349374999998,-6.969,-3.176,1.7260000000000002,-0.12163199557148484,-0.05543165704333991,0.03012438288942213,62.809665686469664,-1.2470592576130246,-8.020877932865323,65.74900017780921,6.385004690006777,24.400000000000002,0x0000,0x4056
63,2.1946434670003327,adis16470,0.10375000000000001,0.87375,0.4825,1.0174399375,8.5685604375,4.731708625,-7.569000000000001,-7.5760000000000005,-4.174,-0.13210397108345082,-0.1322261441310904,-0.07285004297824332,62.51729885280018,-1.5990516209995889,-8.166063030534122,61.09175385649363,-5.934316934128019,24.3,0x0000,0x4056
64,2.2294092649999584,adis16470,-0.20375000000000001,0.865,0.3675,-1.9981049375,8.482752249999999,3.6039438749999997,-15.569,-3.676,1.7260000000000002,-0.2717303112429972,-0.06415830330331156,0.03012438288942213,62.07614109728723,-1.4476711274151657,-8.106057390910202,66.98152136796097,12.232114327989173,24.400000000000002,0x0000,0x4056
65,2.2642117290001806,adis16470,-0.21125,0.87875,0.41875,-2.0716548125,8.6175936875,4.1065346875,14.431000000000001,2.3240000000000003,-2.1740000000000004,0.2518684643553017,0.040561451816348223,-0.03794345793835673,62.61722497542575,-1.0945678346961394,-8.18171798677827,64.52083873483303,12.244326068300506,24.400000000000002,0x0000,0x4056
66,2.2990084890002436,adis16470,-0.00375,0.89,0.465,-0.03677493749999999,8.7279185,4.56009225,-6.969,3.524,1.1260000000000001,-0.12163199557148484,0.06150540284028017,0.019652407377456153,62.37551563042726,-0.9482257183327385,-8.142536813623915,62.41419661530868,0.21396937281521064,24.6,0x0000,0x4056
67,2.333832046000225,adis16470,0.02875,0.87375,0.5375,0.2819411875,8.5685604375,5.2710743749999995,-14.169,4.224,1.526,-0.24729570171507656,0.07372270760424049,0.02663372438543347,61.81248948959272,-0.8172146288725934,-8.08939583979425,58.40164531965296,-1.6053424113600767,24.1,0x0000,0x4056
68,2.36864328799993,adis16470,0.10625,0.6587500000000001,0.6075,1.0419565625,6.4601306875,5.957539875,6.331,29.924000000000003,-17.274,0.11049679494376101,0.5222723253667833,-0.3014881749895005,61.73857571822327,0.08474724770607425,-8.690723955826819,47.317715195317945,-6.761900970355477,24.3,0x0000,0x4056
69,2.403462492000017,adis16470,-0.20875,0.74875,0.1975,-2.0471381875,7.3427291875,1.936813375,-67.569,24.724000000000004,-9.774000000000001,-1.1793015222800485,0.4315152042630781,-0.17058848108992578,59.70262171868556,1.2284478914261352,-9.031047940639528,75.22348420877049,15.087014974433366,24.400000000000002,0x0000,0x4056
70,2.4382884560000093,adis16470,-0.15125,0.78,0.765,-1.4832558125,7.6491869999999995,7.50208725,-25.969,27.724000000000004,-13.974,-0.4532445534504075,0.483875081822908,-0.2438923096736876,58.53338489565645,2.307724181317932,-9.51770699564684,45.55625222708068,7.881925588383668,24.5,0x0000,0x4056
71,2.473140123000121,adis16470,-0.12125,0.875,0.48875,-1.1890563125,8.580818749999999,4.7930001875,-63.069,46.124,-40.974,-1.1007617059403036,0.8050156641898646,-0.7151312077121565,56.4248924496645,3.9748756831372534,-10.94571694574462,60.813522140968374,6.898007429232587,24.700000000000003,0x0000,0x4056
72,2.507965586999944,adis16470,-0.27125,0.74125,0.81875,-2.6600538124999997,7.2691793124999995,8.029194687499999,-60.86900000000001,59.92400000000001,-10.074000000000002,-1.0623644623964286,1.045871100965082,-0.1758244688459088,54.06211972899185,6.216491888346587,-11.296548297340198,42.155913302402624,13.798620454457598,24.5,0x0000,0x4056
73,2.5427910690000317,adis16470,-0.051250000000000004,0.75875,0.51875,-0.5025908125,7.4407956875,5.0871996875,-84.869,132.424,6.526,-1.4812434828750676,2.311234808660971,0.11390018698514995,51.1971801880986,10.67549353325084,-11.069276836352524,55.639963325699235,3.1914589723954445,24.5,0x0000,0x4056
74,2.577617810999982,adis16470,-0.08750000000000001,0.6775,0.71375,-0.858081875,6.644005375,6.9994964374999995,-79.769,113.32400000000001,-23.274,-1.3922316910233568,1.9778769215300542,-0.4062079301091603,48.32085758221731,14.43136982872338,-11.879833126318564,43.50745575554237,5.08103945745507,24.400000000000002,0x0000,0x4056
75,2.6124706630002947,adis16470,-0.22,0.7125,0.7625000000000001,-2.157463,6.987238125,7.477570625,-102.169,82.524,-38.674,-1.7831854434700865,1.4403155119158004,-0.674988634916287,44.725947287500645,17.199502380548335,-13.227732324561076,43.05851360908562,11.904356256592942,24.6,0x0000,0x4056
76,2.6472688310000194,adis16470,-0.16,0.69625,0.6175,-1.569064,6.8278800625,6.055606375,-126.169,75.024,-55.374,-2.2020644639487257,1.3094158180162259,-0.9664586199993401,40.497399282501355,19.609099490727708,-15.154644030561498,48.43037115506407,9.75530386203464,24.5,0x0000,0x4056
77,2.6821072760003517,adis16470,-0.24375,0.63375,0.6900000000000001,-2.3903709374999997,6.2149644375,6.7665885,-126.269,35.524,-21.274,-2.20380979320072,0.6200107634784656,-0.3713013450692737,36.227754327404746,20.721435546452962,-15.895796705287166,42.56679894526279,14.583490260877852,24.3,0x0000,0x4056
78,2.717018647000259,adis16470,-0.7000000000000001,0.58625,0.965,-6.864655,5.7491485625,9.46341725,-114.569,57.624,-49.474,-1.9996062707173834,1.0057285281692125,-0.8634841941316745,32.208999411890844,22.914452351311105,-17.623010086823722,31.279222796642994,31.796897793130398,24.6,0x0000,0x4056
79,2.751885721000235,adis16470,-0.11625,0.56,0.3575,-1.1400230625,5.4917240000000005,3.505877375,-106.869,125.024,-38.074,-1.86521591831382,2.1820804440133905,-0.664516659404321,29.062062636681887,26.926689296246035,-18.950536968233646,57.44612987402161,9.92480460808248,24.5,0x0000,0x4056
80,2.786648945000252,adis16470,-0.68875,0.4,1.0675000000000001,-6.754330187499999,3.92266,10.468598875,-44.569,81.024,2.126,-0.7778757943213528,1.4141355731358856,0.037105699897399445,27.373277336336002,29.771258463950485,-18.87663055172745,20.541338910996494,31.13939930005267,24.3,0x0000,0x4056
81,2.8214851310003723,adis16470,-0.40125,0.39875,0.64375,-3.9349183125,3.9104016875,6.3130309375,-83.869,121.424,-37.674,-1.4637901903551243,2.119248590941595,-0.6575353423963437,24.598054498041147,33.87956627570255,-20.189053920698463,31.77479776377231,27.918372188389366,24.5,0x0000,0x4056
82,2.856330798000272,adis16470,-0.62875,0.31375000000000003,0.81625,-6.1659311875,3.0768364375,8.0046780625,-86.369,70.12400000000001,-14.874,-1.5074234216549824,1.2238946846685037,-0.25960027294163657,21.577222506375808,36.3109418760609,-20.707347003254675,21.025750808117124,35.71630232848476,24.400000000000002,0x0000,0x4056
83,2.8911697250000543,adis16470,-0.59375,0.25375000000000003,0.7825,-5.8226984375,2.4884374375,7.673703624999999,-75.169,98.924,-26.774,-1.3119465454316175,1.7265495092428707,-0.4672944539289618,18.938585001317513,39.678623536971145,-21.640124407973133,17.966901448904427,35.82113505700058,24.400000000000002,0x0000,0x4056
84,2.9260186700003032,adis16470,-0.63125,0.25625,0.7312500000000001,-6.1904478124999995,2.5129540624999995,7.1711128125000005,-81.669,64.024,-21.274,-1.425392946811249,1.1174296002968496,-0.3713013450692737,16.156889031153675,41.85497698776378,-22.381502055249506,19.311856564352652,39.16884651507714,24.400000000000002,0x0000,0x4056
85,2.960870540000087,adis16470,-0.6075,0.17625,0.7262500000000001,-5.957539875,1.7284220624999997,7.122079562500001,-74.76899999999999,79.724,-11.874,-1.3049652284236402,1.3914462928599594,-0.2072403953818067,13.552852019296624,44.52298443035634,-22.7953329458972,13.641106425418988,39.107425723940246,24.3,0x0000,0x4056
86,2.9957020230003764,adis16470,-0.77125,0.1225,0.74875,-7.5633788125,1.201314625,7.3427291875,-56.069,68.12400000000001,-18.074,-0.9785886583007006,1.1889880996286173,-0.31545080900545514,11.553712105905026,46.867333360448285,-23.424879826518985,9.291614811018118,45.469802790743515,24.3,0x0000,0x4056
87,3.030507041999954,adis16470,-0.73375,0.10250000000000001,0.62375,-7.1956294375,1.005181625,6.1168979375,-58.669000000000004,79.32400000000001,-5.474,-1.0239672188525533,1.3844649758519822,-0.0955393232541696,9.508157386852009,49.62073050599729,-23.615400885694815,9.331935418608099,49.25554423579574,24.8,0x0000,0x4056
88,3.0653932420000274,adis16470,-0.82125,0.1,0.7000000000000001,-8.053711312499999,0.980665,6.864655,-65.469,62.124,-15.974,-1.1426496079881676,1.0842683445089574,-0.2787988947135742,7.242294333608464,51.737679089732715,-24.17267718176182,8.130102354155978,49.27112712569256,24.6,0x0000,0x4056
89,3.1002831420000803,adis16470,-0.76375,0.09375,0.555,-7.4898289375,0.9193734375,5.442690750000001,-66.369,72.62400000000001,-16.374000000000002,-1.1583575712561165,1.2675279159683621,-0.28578021172155155,5.019910725598518,54.25830785234808,-24.74396409325253,9.587833024818645,53.61082405176028,24.3,0x0000,0x4056
90,3.1350990420000926,adis16470,-0.8462500000000001,0.08750000000000001,0.51125,-8.2988775625,0.858081875,5.0136498125,-59.769000000000005,57.124,-14.074000000000002,-1.043165840624491,0.9970018819092409,-0.24563763892568197,3.0744694356723543,56.292079919490604,-25.23396073356781,9.712024895994569,58.495025747833346,24.3,0x0000,0x4056
91,3.1699122570003055,adis16470,-0.88625,0.07375,0.63125,-8.691143562499999,0.7232404374999999,6.1904478124999995,-38.769000000000005,54.624,-4.474,-0.6766466977056818,0.9533686506093826,-0.0780860307342263,1.8235771660433513,58.11694180339756,-25.38971480693334,6.663752656303035,54.35510825153342,24.400000000000002,0x0000,0x4056
92,3.2047308240003076,adis16470,-0.645,0.0325,0.48375,-6.32528925,0.318716125,4.7439669375,-34.469,73.724,-0.774,-0.6015975398699255,1.2867265377402997,-0.01350884841043611,0.6878161875196179,60.53159625551121,-25.416664435841433,3.8435530238586906,53.06815583106034,24.6,0x0000,0x4056
93,3.239553465999961,adis16470,-0.92875,0.05,0.53625,-9.107926187499999,0.4903325,5.258816062499999,-25.869000000000003,62.624,-3.0740000000000003,-0.45149922419841315,1.092994990768929,-0.05365142120630569,-0.10221418212727063,62.65590179109484,-25.523709348013995,5.3268627073243335,59.890839067605526,24.400000000000002,0x0000,0x4056
94,3.274421032000191,adis16470,-0.8075,0.0325,0.38625,-7.9188698749999995,0.318716125,3.7878185624999996,-23.169000000000004,73.224,-1.6740000000000002,-0.4043753343945663,1.2779998914803279,-0.02921681167838508,-0.7956673796715055,65.19203026945101,-25.58207774724139,4.809674712031758,64.3581347971307,24.3,0x0000,0x4056
95,3.3092804880002404,adis16470,-0.8525,0.0225,0.37375,-8.360169125,0.220649625,3.6652354375000002,-12.469,67.924,8.226,-0.21762510443117294,1.1854974411246286,0.14357078426905356,-1.136820692073228,67.53439112240149,-25.2953244791322,3.4450864632402207,66.28843175852877,24.3,0x0000,0x4056
96,3.344105851000222,adis16470,-0.91125,0.02375,0.28375,-8.9363098125,0.2329079375,2.7826369375,-13.869,61.92400000000001,6.926,-0.24205971395909356,1.0807776860049687,0.12088150399312726,-1.4917267847262745,69.75004489778748,-25.05412401499433,4.78452968816502,72.64731674956799,24.0,0x0000,0x4056
97,3.3789037700003064,adis16470,-0.90625,0.0275,0.24,-8.8872765625,0.269682875,2.3535959999999996,-2.169,61.624,17.226,-0.03785619147575701,1.0755416982489856,0.30065041694854316,-1.4051265734702143,71.95802413573766,-24.454696319799247,6.536633648797067,75.0742661621612,24.200000000000003,0x0000,0x4056
98,3.413717782000276,adis16470,-0.90625,0.04,0.1525,-8.8872765625,0.392266,1.495514125,6.331,49.624,21.726000000000003,0.11049679494376101,0.8661021880096661,0.3791902332882881,-0.8670784145229935,73.81454360045271,-23.698327507887416,14.697319279511909,80.13112752921288,24.6,0x0000,0x4056
99,3.448516775000371,adis16470,-1.25125,0.04,0.53,-12.270570812499999,0.392266,5.1975245,23.331,55.624,30.526,0.407202767782797,0.9708219431293259,0.532779207463789,0.0322385657961541,75.57489536879564,-22.636056835944448,4.316027519865624,66.9851344105881,24.400000000000002,0x0000,0x4056
100,3.4833152310002333,adis16470,-0.7425,0.0425,0.1275,-7.281437625,0.416782625,1.2503478749999999,-15.469,7.824000000000001,-23.174000000000003,-0.26998498199100285,0.13655456067603636,-0.40446260085716595,-0.12723859860595937,75.92501965846787,-23.442476255285253,18.43494882292201,79.7402169850042,24.6,0x0000,0x4056
101,3.5181890200001362,adis16470,-0.93875,0.0375,0.19875,-9.205992687499998,0.367749375,1.9490716875,1.231,-7.876,-4.774000000000001,0.0214850030920502,-0.1374621318870734,-0.08332201849020932,0.13107590930073415,75.6941697010652,-23.608965490351647,10.684912400002716,77.84129672628225,24.6,0x0000,0x4056
102,3.5530054760001804,adis16470,-1.045,0.03,0.2325,-10.24794925,0.29419949999999995,2.280046125,8.931000000000001,9.924,0.42600000000000005,0.1558753554956136,0.17320647496791725,0.007435102613495844,0.5802265646119054,76.06601236998567,-23.594133790429623,7.3523793598923595,77.35602213468938,24.3,0x0000,0x4056
103,3.5878180060003615,adis16470,-0.9125,0.03375,0.17625,-8.948568125,0.3309744375,1.7284220624999997,3.9310000000000005,19.324,7.3260000000000005,0.0686088928958971,0.3372674246553843,0.1278628210011046,0.9195390209938743,76.78143784992271,-23.33909760590662,10.840305454330567,78.87419023574188,24.700000000000003,0x0000,0x4056
104,3.622616981000192,adis16470,-0.9825,0.035,0.24625,-9.635033625,0.34323275000000003,2.4148875624999997,5.931,-5.176,0.22600000000000003,0.10351547793578368,-0.0903382420832265,0.0039444441095071855,1.2652005001041426,76.58516705158368,-23.331233045918673,8.08938041395298,75.79374378422435,24.6,0x0000,0x4056
105,3.6574126220002654,adis16470,-0.99,0.04625,0.21,-9.7085835,0.45355756249999996,2.0593964999999996,0.33100000000000007,-10.476,-6.774000000000001,0.005777039824101232,-0.18284069243892598,-0.1182286035300959,1.4995920993591718,76.25114361149794,-23.566938724827097,12.420429945256576,77.74543318133638,24.900000000000002,0x0000,0x4056
106,3.692208208000011,adis16470,-0.9500000000000001,0.03125,0.2525,-9.3163175,0.3064578125,2.476179125,2.8310000000000004,-1.976,-1.574,0.04941027112395947,-0.034487706019407954,-0.027471482426390748,1.7072402064194696,76.15888076227637,-23.621707005523113,7.055186061096684,75.00705071211615,24.400000000000002,0x0000,0x4056
107,3.7270077759999367,adis16470,-0.975,0.03875,0.24625,-9.561483749999999,0.38000768749999997,2.4148875624999997,3.2310000000000003,-3.076,-3.6740000000000004,0.056391588131936794,-0.05368632779134558,-0.06412339671827168,1.9621390772222957,76.04396662717474,-23.749560548549578,8.942753948409715,75.65830123069048,24.6,0x0000,0x4056
108,3.761811028000011,adis16470,-0.9675,0.02875,0.23375,-9.487933875,0.2819411875,2.2923044375,1.131,-2.2760000000000002,0.22600000000000003,0.019739673840055868,-0.03972369377539094,0.0039444441095071855,2.101708689619194,75.971839104398,-23.74169501359756,7.011858274475106,76.31898836439397,24.6,0x0000,0x4056
109,3.796570929000154,adis16470,-0.96625,0.04,0.25,-9.4756755625,0.392266,2.4516625,3.8310000000000004,-1.076,0.526,0.06686356364390277,-0.018779742751458987,0.009180431865490174,2.37198200269264,75.92209396898,-23.72341129567759,9.090276920822323,75.317264355575,24.5,0x0000,0x4056
110,3.8313330160003716,adis16470,-0.96875,0.03375,0.23125,-9.5001921875,0.3309744375,2.2677878125,2.7310000000000003,0.22400000000000003,-0.5740000000000001,0.04766494187196515,0.003909537524467299,-0.010018189906447452,2.583648120819791,75.94002677743737,-23.74336472270957,8.303462731363046,76.43718593348136,24.400000000000002,0x0000,0x4056
111,3.8661346570002024,adis16470,-0.93125,0.043750000000000004,0.195,-9.132442812499999,0.4290409375,1.9122967499999999,1.431,-5.0760000000000005,-2.474,0.024975661596038857,-0.08859291283123218,-0.043179445694339715,2.8336886663968244,75.80586522536608,-23.82946393801162,12.645420396532959,77.88794805292969,24.400000000000002,0x0000,0x4056
112,3.900962391000121,adis16470,-0.9762500000000001,0.02875,0.27625,-9.573742062500001,0.2819411875,2.7090870624999996,1.231,-13.876000000000001,-1.074,0.0214850030920502,-0.24218188700673318,-0.0187448361664191,2.9378610385030357,75.29852081342705,-23.866869162755453,5.941519793752762,74.11900778365292,24.3,0x0000,0x4056
113,3.935799938999935,adis16470,-0.9675,0.03125,0.2575,-9.487933875,0.3064578125,2.5252123749999997,-2.169,-7.0760000000000005,-0.474,-0.03785619147575701,-0.12349949787111877,-0.008272860654453122,2.94344313246848,75.05080618645614,-23.883382151975454,6.919533262705705,74.9917972166035,24.3,0x0000,0x4056
114,3.970647357999951,adis16470,-0.95125,0.015,0.22125,-9.3285758125,0.14709974999999997,2.1697213125,-0.5690000000000001,-0.176,-2.474,-0.009930923443847736,-0.00307177948351002,-0.043179445694339715,2.942713152687944,75.0813281407927,-23.96959461957599,3.878524502847706,76.87742788088606,24.200000000000003,0x0000,0x4056
115,4.005469499000355,adis16470,-0.96875,0.03625,0.24,-9.5001921875,0.35549106249999995,2.3535959999999996,2.2310000000000003,-4.676,1.1260000000000001,0.038938295611993495,-0.08161159582325485,0.019652407377456153,3.1317759322712426,74.93880957942154,-23.930384847147973,8.589126455069442,75.93399678430961,24.400000000000002,0x0000,0x4056
116,4.040292751000379,adis16470,-0.9325,0.035,0.2325,-9.144701125,0.34323275000000003,2.280046125,1.431,-3.976,1.826,0.024975661596038857,-0.06939429105929454,0.031869712141416456,3.2891936371889035,74.82131460880757,-23.86679758899593,8.560889571164608,75.84846629637542,24.3,0x0000,0x4056
117,4.075144478000311,adis16470,-0.95125,0.0375,0.30125,-9.3285758125,0.367749375,2.9542533125,7.131,-3.176,6.026,0.12445942895971564,-0.05543165704333991,0.10517354072517829,3.6088826053214564,74.66242097531828,-23.656780521676787,7.095753951286168,72.30041257000049,24.5,0x0000,0x4056
118,4.110019110999929,adis16470,-0.95875,0.03,0.28375,-9.4021256875,0.29419949999999995,2.7826369375,6.731,-8.576,4.026,0.11747811195173832,-0.1496794366510337,0.0702669556852917,3.8874569261799787,74.34460107434353,-23.516375253244455,6.03528239661225,73.4265832841838,24.400000000000002,0x0000,0x4056
119,4.144859633000124,adis16470,-0.975,0.0525,0.2575,-9.561483749999999,0.5148491249999999,2.5252123749999997,3.4310000000000005,-8.976,4.526,0.05988224663592546,-0.15666075365901103,0.07899360194526335,4.157329047280795,74.0495400452659,-23.358687385596145,11.523721703897328,74.91521482164451,24.5,0x0000,0x4056
120,4.179715358000067,adis16470,-0.96875,0.06,0.2575,-9.5001921875,0.5883989999999999,2.5252123749999997,8.031,-3.976,7.726,0.1401673922276646,-0.06939429105929454,0.1348441380090819,4.610839139303699,73.92741928951341,-23.089391907454136,13.116436125391472,74.7342377266476,24.3,0x0000,0x4056
121,4.214547361000314,adis16470,-0.96625,0.0825,0.22875,-9.4756755625,0.809048625,2.2432711875,5.631,-1.576,4.226,0.0982794901798007,-0.027506389011430633,0.07375761418928037,5.107481187756816,73.91255247682399,-22.942191858549137,19.832129850218386,75.87394533195636,24.5,0x0000,0x4056
122,4.249377087000084,adis16470,-0.96375,0.07375,0.26875,-9.451158937499999,0.7232404374999999,2.6355371874999998,5.631,-9.376000000000001,2.426,0.0982794901798007,-0.16364207066698835,0.042341687653382434,5.504440357718552,73.59170647367463,-22.857695125223977,15.34527721166997,73.87182990022183,24.200000000000003,0x0000,0x4056
123,4.284232256999985,adis16470,-0.95125,0.06625,0.275,-9.3285758125,0.6496905625,2.69682875,5.831,-16.676,2.226,0.10177014868378936,-0.2910511060625744,0.03885102914939378,5.864427024274217,73.01903978307878,-22.780107392147492,13.544973367945529,73.4394136340846,24.400000000000002,0x0000,0x4056
124,4.319052057000135,adis16470,-0.9400000000000001,0.051250000000000004,0.33875,-9.218251,0.5025908125,3.3220026875,2.3310000000000004,-36.076,-1.874,0.04068362486398783,-0.6296449809494743,-0.03270747018237374,5.998742361639874,71.72711738878826,-22.845359523065913,8.603121778698393,69.9745518058172,24.6,0x0000,0x4056
125,4.353862616000242,adis16470,-0.965,0.05625,0.39,-9.46341725,0.5516240625,3.8245934999999998,-8.369,-80.77600000000001,-18.074,-0.14606660509940544,-1.4098071565909398,-0.31545080900545514,5.757409169203172,68.89272696038294,-23.47452489768648,8.207216411918147,67.78847749542228,24.5,0x0000,0x4056
126,4.388674675999937,adis16470,-0.97,0.055,0.4275,-9.5124505,0.53936575,4.192342875,-18.269000000000002,-135.576,-38.674,-0.3188542010468441,-2.366247586683832,-0.674988634916287,5.165622402485211,64.21043027174963,-24.82084434039357,7.331115386285924,66.04183299151862,25.1,0x0000,0x4056
127,4.423474180000085,adis16470,-0.9525,0.0175,0.52625,-9.340834124999999,0.17161637500000002,5.1607495624999995,-20.069000000000003,-163.17600000000002,-43.574,-0.35027012758274206,-2.8479584602342674,-0.7605097682640092,4.4159789530423295,58.58267134803414,-26.337197927676197,1.9046209730633157,61.06623345401741,24.400000000000002,0x0000,0x4056
128,4.458337331000166,adis16470,-0.81375,-0.0325,0.6175,-7.9801614375,-0.318716125,6.055606375,-15.069,-144.276,-36.574,-0.2630036649830255,-2.518091231607339,-0.638336720624406,3.752556765120239,53.5370782207042,-27.612285518833815,-3.01278750418334,52.76942083791038,24.6,0x0000,0x4056
129,4.493136390000018,adis16470,-0.7312500000000001,-0.05625,0.67875,-7.1711128125000005,-0.5516240625,6.656263687499999,-11.069,-124.77600000000001,-21.774,-0.19319049490325235,-2.1777520274684448,-0.3800279913292453,3.205270792450012,49.1517940317824,-28.36999822628997,-4.7374433480101095,47.03458818730329,24.5,0x0000,0x4056
130,4.527946672000326,adis16470,-0.77875,-0.05625,0.6875,-7.6369286875,-0.5516240625,6.742071875,-15.769,-136.576,-26.074,-0.27522096974698584,-2.3837008792037753,-0.4550771491650015,2.50967214929778,44.47891964273695,-29.277641519165993,-4.677417858881751,48.466279228737434,24.400000000000002,0x0000,0x4056
131,4.562754898000094,adis16470,-0.5437500000000001,-0.08,0.685,-5.3323659375000005,-0.784532,6.71755525,-9.869,-116.976,-18.274,-0.17224654387932037,-2.041616345812887,-0.3189414675094438,1.9896005646852244,40.364117668167225,-29.91372737001428,-6.661301639770154,38.25354926888745,24.400000000000002,0x0000,0x4056
132,4.597547902000315,adis16470,-0.57625,-0.0575,0.74,-5.6510820625000004,-0.563882375,7.256920999999999,0.33100000000000007,-112.07600000000001,-11.774000000000001,0.005777039824101232,-1.956095212465165,-0.2054950661298124,1.87223250608433,36.49186796971233,-30.323379551544377,-4.443109205196141,37.82490580140983,24.5,0x0000,0x4056
133,4.632359405999978,adis16470,-0.52125,-0.07625,0.83875,-5.1117163125,-0.7477570625,8.2253276875,10.231000000000002,-100.176,0.02600000000000001,0.1785646357715399,-1.7484010314778395,0.00045378560551852584,2.0799322642816755,32.97957683487812,-30.322474453428377,-5.194428907734806,31.75370871110357,24.6,0x0000,0x4056
134,4.66716692800037,adis16470,-0.55,-0.06375,0.90375,-5.3936575,-0.6251739374999999,8.8627599375,17.331,-95.976,7.426,0.30248301266313726,-1.6750972028940778,0.1296081502530989,2.5488192661629183,29.671323266786306,-30.06399378763092,-4.034927516130957,31.260552974895,24.400000000000002,0x0000,0x4056
135,4.701974302000053,adis16470,-0.53,-0.045,0.97875,-5.1975245,-0.44129925,9.5982586875,18.931,-88.976,6.526,0.3304082806950465,-1.5529241552544746,0.11390018698514995,3.0909548516433443,26.611022088396638,-29.836840499450915,-2.6324348689864836,28.4105330396262,24.5,0x0000,0x4056
136,4.7367794360002335,adis16470,-0.42,-0.0575,0.86875,-4.118792999999999,-0.563882375,8.5195271875,8.231000000000002,-85.57600000000001,-4.074000000000001,0.1436580507316533,-1.4935829606866675,-0.071104713726249,3.234152573517385,23.674941521310828,-29.97863646055358,-3.786715568146569,25.75255760223741,24.3,0x0000,0x4056
137,4.7715953470001295,adis16470,-0.38125000000000003,-0.02875,1.02,-3.7387853125,-0.2819411875,10.002782999999999,18.230999999999998,-108.77600000000001,0.22600000000000003,0.3181909759310862,-1.898499347149352,0.0039444441095071855,3.7592155986982863,19.899776040028577,-29.970768035287502,-1.614527097820429,20.487001573995535,24.400000000000002,0x0000,0x4056
138,4.80640836900011,adis16470,-0.26375,-0.03375,0.9450000000000001,-2.5865039375,-0.3309744375,9.26728425,13.331000000000001,-55.476,3.726,0.2326698425833641,-0.9682388558363743,0.06503096792930872,4.0979326985369005,17.9208229420652,-29.84105499104005,-2.0454084888872277,15.584993200613141,24.400000000000002,0x0000,0x4056
139,4.841218243000185,adis16470,-0.10875,-0.02625,0.7725,-1.0664731875,-0.25742456249999995,7.575637124999999,5.731,-82.27600000000001,8.026,0.10002481943179502,-1.4359870953708547,0.14008012576506487,4.1725554145556725,14.91584640650449,-29.561671239277956,-1.9461951170307557,8.008689465664515,24.6,0x0000,0x4056
140,4.876029820999975,adis16470,-0.37,-0.0425,1.1925000000000001,-3.6284604999999996,-0.416782625,11.694430125,15.631000000000002,-141.876,-0.674,0.2728124153792337,-2.476203329559475,-0.011763519158441782,4.581538805432326,10.121928423413724,-29.585134242849815,-2.0411240516325884,17.227391826576316,24.3,0x0000,0x4056
141,4.910840399000335,adis16470,-0.10625,-0.055,0.8275,-1.0419565625,-0.53936575,8.115002875,-13.469,-98.27600000000001,-0.374,-0.23507839695111624,-1.7152397756899476,-0.0065275314024587925,3.9543699115971473,6.712881220025991,-29.59815339902195,-3.8025858070705523,7.300742068636,24.3,0x0000,0x4056
142,4.945670810000138,adis16470,-0.13,-0.08625000000000001,1.28125,-1.2748645,-0.8458235625,12.564770312499999,5.931,-158.276,19.126,0.10351547793578368,-2.762437326886545,0.33381167273643547,4.0007080149557535,1.2916366883876176,-28.931982367996085,-3.851173883439451,5.780604404176626,24.1,0x0000,0x4056
143,4.9804441840001346,adis16470,-0.07125000000000001,-0.07625,1.14625,-0.6987238125,-0.7477570625,11.2408725625,-33.969,-159.376,13.326,-0.5928708936099538,-2.781635948658483,0.23258257612076436,2.686990128148694,-4.094395111954695,-28.46859410512613,-3.805780714557745,3.549060732126016,24.200000000000003,0x0000,0x4056
144,5.015253521999966,adis16470,0.17500000000000002,-0.095,0.78125,1.71616375,-0.93163175,7.6614453125,-64.869,-184.976,-10.274000000000001,-1.1321776324762016,-3.228440237169031,-0.17931512734989744,0.28170175525178265,-10.573350311291811,-28.826225243736403,-6.933128127853605,-12.536441891823381,24.400000000000002,0x0000,0x4056
145,5.050116950000302,adis16470,0.37625000000000003,-0.08,1.08,3.6897520625,-0.784532,10.591182,-33.069,-225.276,-10.974,-0.5771629303420048,-3.931807925722746,-0.19153243211385773,-0.9385087125941651,-18.44192517971834,-29.208819147343064,-4.23639479905884,-19.158646747396226,24.400000000000002,0x0000,0x4056
146,5.085002629999963,adis16470,0.5437500000000001,-0.11125,0.74,5.3323659375000005,-1.0909898125,7.256920999999999,-28.969,-127.27600000000001,-6.674,-0.5056044310102373,-2.221385258768303,-0.11648327427810157,-2.0811199545707106,-23.14444495540069,-29.441645308043906,-8.549695411692037,-36.0033441348476,24.3,0x0000,0x4056
147,5.119823256000018,adis16470,0.5025000000000001,-0.115,0.675,4.927841625,-1.12776475,6.61948875,-13.469,-158.476,-3.1740000000000004,-0.23507839695111624,-2.7659279853905336,-0.055396750458300024,-2.6924889832902625,-28.814889946841976,-29.552165740091677,-9.668668661083636,-36.27382638917378,24.400000000000002,0x0000,0x4056
148,5.1546312140003465,adis16470,0.4425,-0.115,1.2275,4.339442625,-1.12776475,12.037662874999999,44.331,-128.776,-0.274,0.7737219107016062,-2.247565197548218,-0.004782202150464463,-1.2334772494777178,-33.02624016006945,-29.56170309537566,-5.352210167180927,-19.743930759827066,24.3,0x0000,0x4056
149,5.189408729000206,adis16470,0.7275,-0.08375,0.8425,7.134337875,-0.8213069375000001,8.262102624999999,-0.16899999999999998,-85.176,-8.174000000000001,-0.0029496064358704166,-1.4866016436786902,-0.14266321305801652,-1.3281060413888783,-36.082106423041566,-29.845974347680155,-5.676924400659238,-40.671361342918395,24.5,0x0000,0x4056
150,5.224222651000218,adis16470,0.5775,-0.06875,0.65375,5.663340375,-0.6742071875,6.4110974375000005,-11.469,-116.07600000000001,-8.374,-0.20017181191122965,-2.025908382544938,-0.14615387156200516,-1.8129050358868275,-40.14670135118793,-30.13750597977404,-6.003303182604123,-41.29997551729885,24.700000000000003,0x0000,0x4056
151,5.259095869000248,adis16470,0.69125,-0.08,0.765,6.7788468125,-0.784532,7.50208725,8.631,-85.57600000000001,-21.874000000000002,0.15063936773963058,-1.4935829606866675,-0.3817733205812397,-1.6010755469487166,-43.10731627095459,-30.900324762713304,-5.970015980857022,-41.945846888222626,24.3,0x0000,0x4056
152,5.293922512000336,adis16470,0.705,-0.06375,0.6825,6.913688249999999,-0.6251739374999999,6.693038625,-5.769000000000001,-96.27600000000001,-20.974,-0.1006880445475529,-1.680333190650061,-0.3660653573132907,-1.8726773599602404,-46.44717901254633,-31.630779947547797,-5.336320097391443,-45.80466497535528,24.3,0x0000,0x4056
153,5.328718749000018,adis16470,0.7475,-0.058750000000000004,0.68125,7.3304708750000005,-0.5761406875,6.6807803125,-1.0690000000000002,-67.476,-14.274000000000001,-0.018657569703819387,-1.1776783660756938,-0.2491282974296706,-1.9702551521565477,-48.7701664362363,-32.12746037820994,-4.928909155672071,-47.54916136219998,24.400000000000002,0x0000,0x4056
154,5.363482468000257,adis16470,0.7987500000000001,-0.055,0.6625,7.8330616875,-0.53936575,6.496905624999999,-13.569,-69.676,-22.974,-0.2368237262031106,-1.216075609619569,-0.4009719423531773,-2.4880399723899997,-51.17312243490029,-32.92612247203861,-4.745747943802282,-50.230257549435095,24.400000000000002,0x0000,0x4056
155,5.398293297000237,adis16470,0.75125,-0.045,0.7312500000000001,7.367245812499999,-0.44129925,7.1711128125000005,-11.769,-71.676,-20.374000000000002,-0.20540779966721265,-1.2509821946594557,-0.3555933818013247,-2.9102022605672953,-53.50922956827796,-33.63535679441488,-3.5214533769222376,-45.718791009082594,24.400000000000002,0x0000,0x4056
156,5.433104366999942,adis16470,0.775,-0.02625,0.6725,7.60015375,-0.25742456249999995,6.594972124999999,-33.469,-63.976,-20.874000000000002,-0.5841442473499822,-1.1165918422558923,-0.3643200280612964,-4.038493220961324,-55.602151451171615,-34.3620022972589,-2.23531756973772,-49.028861999466784,25.0,0x0000,0x4056
157,5.4679483439999785,adis16470,0.7875,-0.0325,0.38375000000000004,7.722736874999999,-0.318716125,3.7633019375,-52.36900000000001,-43.376000000000005,-8.074,-0.9140114759769106,-0.7570540163450604,-0.14091788380602216,-5.842800366533124,-57.25006634584881,-34.643334214650466,-4.840859675664152,-63.93923762792806,24.5,0x0000,0x4056
158,5.50276313600034,adis16470,0.8562500000000001,-0.02875,0.5,8.3969440625,-0.2819411875,4.903325,-24.369000000000003,-19.176000000000002,3.526,-0.4253192854184982,-0.3346843373624327,0.06154030942532006,-6.623192131369652,-57.952845975199686,-34.520577779906084,-3.2908836860672928,-59.67637275943555,24.200000000000003,0x0000,0x4056
159,5.537552151,adis16470,0.7837500000000001,-0.08,0.5625,7.6859619375,-0.784532,5.516240625,-4.1690000000000005,-2.976,7.526,-0.07276277651564361,-0.051940998539351246,0.13135347950509324,-6.794751876224651,-57.97646414309938,-34.25875579601113,-8.094448482272004,-54.06068381750053,24.3,0x0000,0x4056
160,5.5723694060002344,adis16470,0.785,-0.05,0.50875,7.698220249999999,-0.4903325,4.9891331875,-8.068999999999999,-3.676,7.426,-0.14083061734342245,-0.06415830330331156,0.1296081502530989,-7.046438501929,-58.080910435634856,-34.00020299404935,-5.613009179156909,-56.927358772490784,24.3,0x0000,0x4056
161,5.607178384000235,adis16470,0.83625,-0.0425,0.51875,8.2008110625,-0.416782625,5.0871996875,0.23100000000000004,-8.476,-0.774,0.004031710572106902,-0.1479341073990394,-0.01350884841043611,-6.991302703850074,-58.37046379404568,-34.02714515695356,-4.683651623709738,-58.101566901362006,24.5,0x0000,0x4056
162,5.641984324000077,adis16470,0.85875,-0.065,0.51625,8.4214606875,-0.63743225,5.0626830625,7.331,6.924,-0.474,0.12795008746370432,0.12084659740808738,-0.008272860654453122,-6.744942235656347,-58.14263559926859,-34.043643172513484,-7.176234254966899,-58.78787415457722,24.3,0x0000,0x4056
163,5.676792320000004,adis16470,0.87125,-0.07875,0.5775,8.5440438125,-0.7722736874999999,5.663340375,2.531,1.124,-3.2740000000000005,0.044174283367976484,0.019617500792416268,-0.057142079710294356,-6.679009654193428,-58.065810414854084,-34.15760455141724,-7.765166018425333,-56.21846156623535,24.5,0x0000,0x4056
164,5.711607520000143,adis16470,0.88375,-0.07875,0.5375,8.6666269375,-0.7722736874999999,5.2710743749999995,3.2310000000000003,-13.076000000000002,-12.274000000000001,0.056391588131936794,-0.22821925299077858,-0.21422171238978402,-6.601895275988696,-58.519054490960784,-34.58492608300983,-8.335195384677675,-58.421092189218335,24.400000000000002,0x0000,0x4056
165,5.746421960000134,adis16470,0.88,-0.095,0.56875,8.629852,-0.93163175,5.577532187499999,4.131,-16.176,-12.674000000000001,0.07209955139988576,-0.28232445980260273,-0.22120302939776135,-6.5185701124700905,-59.03586354966522,-35.026164295575484,-9.48274123050867,-56.764746735269654,24.400000000000002,0x0000,0x4056
166,5.781232215000273,adis16470,0.92625,-0.07375,0.49875,9.0834095625,-0.7232404374999999,4.8910666875,-2.169,3.624,-1.574,-0.03785619147575701,0.06325073209227451,-0.027471482426390748,-6.630419159687131,-58.96031333819818,-35.08095560861329,-8.411355674738502,-61.43981562180311,24.400000000000002,0x0000,0x4056
167,5.816039619000094,adis16470,0.88625,-0.07875,0.5337500000000001,8.691143562499999,-0.7722736874999999,5.2342994375,-0.16899999999999998,4.724,3.326,-0.0029496064358704166,0.08244935386421214,0.0580496509213314,-6.671434085472892,-58.79332398296436,-34.965186123041,-8.3929251873925,-58.66792839139867,24.3,0x0000,0x4056
168,5.850847763000274,adis16470,0.87,-0.06,0.46875,8.5317855,-0.5883989999999999,4.5968671875,-5.6690000000000005,1.2240000000000002,2.726,-0.09894271529555855,0.021362830044410596,0.04757767540936542,-6.877270050901906,-58.80549803798408,-34.87029917156523,-7.294196308540855,-61.48967889892147,25.0,0x0000,0x4056
169,5.885657962000096,adis16470,0.885,-0.07,0.525,8.67888525,-0.6864655000000001,5.14849125,-2.869,-0.876,-0.874,-0.05007349623971732,-0.015289084247470327,-0.015254177662430441,-6.989490518358949,-58.84128666514623,-34.90072326975924,-7.594643368591445,-59.100737186846956,24.400000000000002,0x0000,0x4056
170,5.920435681000072,adis16470,0.7987500000000001,-0.06,0.56875,7.8330616875,-0.5883989999999999,5.577532187499999,-4.869000000000001,-2.3760000000000003,0.7260000000000001,-0.08498008127960392,-0.041469023027385275,0.012671090369478834,-7.136089251698396,-58.83338594552989,-34.8754746196292,-6.022115619664351,-54.39728533620332,24.400000000000002,0x0000,0x4056
171,5.955331139000009,adis16470,0.8425,-0.0525,0.51375,8.262102624999999,-0.5148491249999999,5.0381664375,-17.269000000000002,8.324,4.626,-0.3014009085269008,0.145281206936008,0.0807389311972577,-7.7006260484559474,-58.54191599554049,-34.71404677373218,-5.834788996841337,-58.4930367541217,24.3,0x0000,0x4056
172,5.990170431000024,adis16470,0.8125,-0.0825,0.5575,7.967903124999999,-0.809048625,5.467207374999999,-14.969,10.324,10.026,-0.2612583357310312,0.18018779197589457,0.17498671080495148,-8.22604313185867,-58.12366858705876,-34.36474988694865,-8.417657177013158,-55.25381366426294,24.5,0x0000,0x4056
173,6.024998093000249,adis16470,0.82875,-0.07375,0.46,8.1272611875,-0.7232404374999999,4.511059,-21.169000000000004,17.624000000000002,15.126000000000001,-0.3694687493546797,0.3075968273714807,0.2639985026566623,-8.966216268355781,-57.572823623403174,-33.83794470516028,-9.108493043411105,-60.65786570826421,24.3,0x0000,0x4056
174,6.0598967890000495,adis16470,0.82625,-0.1125,0.515,8.1027445625,-1.103248125,5.0504247499999995,-11.869,23.124000000000002,10.526,-0.20715312891920698,0.4035899362311688,0.18371335706492312,-9.439273468066604,-56.77974889105376,-33.47059811536172,-12.322496637552561,-57.46227573694129,24.400000000000002,0x0000,0x4056
175,6.094751147000352,adis16470,0.9187500000000001,-0.14250000000000002,0.515,9.0098596875,-1.397447625,5.0504247499999995,-16.269000000000002,10.424,3.526,-0.2839476160069575,0.1819331212278889,0.06154030942532006,-10.11552339437735,-56.484449318589824,-33.347702431825994,-15.466714793050297,-59.81742643735307,24.8,0x0000,0x4056
176,6.129549394000151,adis16470,0.9625,-0.14625,0.49625,9.438900625,-1.4342225624999998,4.8665500625,-8.369,4.6240000000000006,4.8260000000000005,-0.14606660509940544,0.0807040246122178,0.08422958970124635,-10.527029054791166,-56.43190405754021,-33.179767071481386,-16.420789733452228,-61.74158788348181,24.400000000000002,0x0000,0x4056
177,6.1644141960000525,adis16470,0.77875,-0.09375,0.5075000000000001,7.6369286875,-0.9193734375,4.976874875,-4.869000000000001,5.924,5.126,-0.08498008127960392,0.10339330488814409,0.08946557745722934,-10.69217429889595,-56.23019972949118,-33.00105000416053,-10.466207639570639,-56.46710814545681,24.400000000000002,0x0000,0x4056
178,6.199205721999988,adis16470,0.8425,-0.13375,0.5375,8.262102624999999,-1.3116394375,5.2710743749999995,-5.1690000000000005,9.324,1.826,-0.0902160690355869,0.16273449945595128,0.031869712141416456,-10.934041438414361,-55.921239956102376,-32.93752084750251,-13.973522333141213,-56.67758180336293,24.5,0x0000,0x4056
179,6.234015414000169,adis16470,0.835,-0.14,0.55,8.18855275,-1.3729310000000001,5.3936575,-1.469,0.924,-0.874,-0.0256388867117967,0.016126842288427607,-0.015254177662430441,-11.051095199896105,-55.88722566744841,-32.96794448597222,-14.281095735970823,-55.79656746316866,24.400000000000002,0x0000,0x4056
180,6.268825624000328,adis16470,0.8425,-0.14125000000000001,0.58625,8.262102624999999,-1.3851893125,5.7491485625,0.7310000000000001,5.1240000000000006,1.6260000000000001,0.01275835683207855,0.08943067087218945,0.0283790536374278,-11.076066835635897,-55.68281041240278,-32.91134290402565,-13.546547874797255,-54.40649907065079,24.3,0x0000,0x4056
181,6.303617335000126,adis16470,0.8525,-0.13375,0.5962500000000001,8.360169125,-1.3116394375,5.8472150625,-5.469,9.324,5.3260000000000005,-0.09545205679156989,0.16273449945595128,0.092956235961218,-11.293879478597564,-55.33859077942035,-32.72604303948766,-12.643221139416452,-54.367258900469,24.8,0x0000,0x4056
182,6.338425360000201,adis16470,0.93625,-0.1925,0.5775,9.1814760625,-1.887780125,5.663340375,-7.6690000000000005,29.924000000000003,19.826,-0.13384930033544515,0.5222723253667833,0.3460289775003958,-11.698304754331698,-54.35042680257782,-32.03593913584519,-18.43494882292201,-56.9685636016369,24.400000000000002,0x0000,0x4056
183,6.373235570000361,adis16470,0.8775000000000001,-0.18625,0.6075,8.605335375,-1.8264885624999998,5.957539875,-10.169,46.624,36.226000000000006,-0.1774825316353034,0.8137423104498362,0.632262974827466,-12.152138584257312,-52.75470992472086,-30.774903780076208,-17.044720534057433,-54.091196638578516,24.400000000000002,0x0000,0x4056
184,6.408044521000193,adis16470,0.88125,-0.215,0.70625,8.6421103125,-2.10842975,6.9259465625,-17.769000000000002,46.524,44.92600000000001,-0.31012755478687243,0.8119969811978419,0.7841066197509726,-12.853876309687198,-51.113474722556525,-29.211077656117215,-16.931548262359474,-50.0460389622623,24.5,0x0000,0x4056
185,6.442853287000162,adis16470,0.8075,-0.2775,0.64,7.9188698749999995,-2.7213453750000003,6.276256,-36.669000000000004,33.524,49.526,-0.6399947834138008,0.5851041784385791,0.8643917653427117,-14.316499088784639,-49.9311618552976,-27.48713781974417,-23.441253540652717,-49.177385425231236,24.400000000000002,0x0000,0x4056
186,6.477664312000343,adis16470,0.75375,-0.2625,0.6225,7.3917624375,-2.574245625,6.104639625,-34.669000000000004,54.224000000000004,59.626000000000005,-0.6050881983739141,0.9463873336014054,1.040670019794139,-15.670184815093446,-48.045303525053995,-25.411496716367143,-22.864508121899647,-48.13025547772782,24.400000000000002,0x0000,0x4056
187,6.512438375000329,adis16470,0.8225,-0.3825,0.7375,8.065969625,-3.751043625,7.232404375,-23.069000000000003,97.62400000000001,74.026,-0.4026300051425719,1.7038602289669444,1.2919974320813223,-16.6912052150605,-44.65176221854876,-22.83731059624259,-27.413244358301846,-44.71269749464708,24.400000000000002,0x0000,0x4056
188,6.547197734000292,adis16470,0.63125,-0.32,0.61375,6.1904478124999995,-3.138128,6.018831437499999,-43.669000000000004,46.92400000000001,65.526,-0.7621678310534038,0.8189782982058194,1.1436444456618042,-18.395665762939185,-43.00759488835272,-20.55967008342163,-27.536857305076385,-42.36471194591872,24.1,0x0000,0x4056
189,6.582001296000271,adis16470,0.6625,-0.41125,0.5775,6.496905624999999,-4.0329848125,5.663340375,-40.469,44.724000000000004,61.026,-0.7063172949895853,0.780581054661944,1.0651046293220596,-20.11715801959405,-41.48321013008583,-18.43574784778555,-35.45547443444187,-43.059530003927364,24.6,0x0000,0x4056
190,6.616802840000219,adis16470,0.57625,-0.42,0.64625,5.6510820625000004,-4.118792999999999,6.337547562499999,-26.869000000000003,72.724,65.526,-0.46895251671835647,1.2692732452203563,1.1436444456618042,-21.291596305568774,-38.90893295721723,-16.155339451178854,-33.01997200375526,-36.783950142249736,24.5,0x0000,0x4056
191,6.651611217000209,adis16470,0.535,-0.48875,0.7325,5.24655775,-4.7930001875,7.183371125,-14.769,99.12400000000001,65.926,-0.2577676772270425,1.7300401677468593,1.1506257626697818,-22.043820099338465,-35.37503072432429,-13.860562389077494,-33.71262491832341,-31.280753838174892,24.5,0x0000,0x4056
192,6.686419779000062,adis16470,0.48375,-0.49875,0.81125,4.7439669375,-4.8910666875,7.9556448125,-19.769000000000002,75.924,49.026,-0.34503413982675907,1.325123781284175,0.85566511908274,-22.908968181032005,-32.61617677480324,-12.154039642415526,-31.582867378254058,-26.92965340208017,24.3,0x0000,0x4056
193,6.7212533410001924,adis16470,0.46,-0.45875,0.7725,4.511059,-4.498800687499999,7.575637124999999,-34.769000000000005,57.224000000000004,35.226000000000006,-0.6068335276259086,0.9987472111612352,0.6148096823075226,-24.25178141933502,-30.55263620108499,-10.926985436532467,-30.704006507553455,-27.11218913797795,24.3,0x0000,0x4056
194,6.756065329000194,adis16470,0.375,-0.51,0.74125,3.67749375,-5.0013914999999995,7.2691793124999995,-42.069,52.624,30.226000000000003,-0.7342425630214945,0.9184620655694961,0.527543219707806,-25.892539354232643,-28.59878913626942,-9.874759949670592,-34.52902090447889,-22.625497908045098,24.1,0x0000,0x4056
195,6.790877298999931,adis16470,0.3625,-0.5225,0.68125,3.5549106249999998,-5.123974625,6.6807803125,-41.36900000000001,59.124,32.32600000000001,-0.7220252582575343,1.0319084669491274,0.5641951339996871,-27.535761950834193,-26.467573759533277,-8.749431827962209,-37.48721325778812,-22.890618626704676,24.400000000000002,0x0000,0x4056
196,6.8256847870002275,adis16470,0.3375,-0.56,0.75875,3.309744375,-5.4917240000000005,7.4407956875,-40.269000000000005,62.92400000000001,34.32600000000001,-0.7028266364855966,1.098230978524912,0.5991017190395737,-29.087264295819008,-24.185635725312565,-7.55462996055399,-36.42940324789836,-19.691767501942422,24.5,0x0000,0x4056
197,6.860494312000355,adis16470,0.2525,-0.5875,0.78125,2.476179125,-5.761406875,7.6614453125,-40.36900000000001,66.62400000000001,39.82600000000001,-0.7045719657375911,1.1628081608487022,0.6950948278992618,-30.621502063878804,-21.71883017822551,-6.168307291463424,-36.94316586615345,-14.4835774682581,24.6,0x0000,0x4056
198,6.895301023000229,adis16470,0.19,-0.63125,0.76125,1.8632635,-6.1904478124999995,7.465312312499999,-51.86900000000001,50.42400000000001,31.726000000000003,-0.9052848297169389,0.8800648220256209,0.553723158487721,-32.57168407323973,-19.781972129849102,-5.064029007205041,-39.66648143302512,-10.875558411450465,24.400000000000002,0x0000,0x4056
199,6.930111992000093,adis16470,0.15375,-0.64125,0.65625,1.5077724375,-6.288514312499999,6.4356140625,-48.769000000000005,38.724000000000004,28.526,-0.8511796229051146,0.6758612995422842,0.49787262242390246,-34.47074562703876,-18.255525496626547,-4.071011305514929,-44.33765055262781,-9.512618682706796,24.6,0x0000,0x4056
200,6.964921351000157,adis16470,0.17,-0.64375,0.71875,1.6671305,-6.3130309375,7.048529687499999,-38.669000000000004,37.524,26.726000000000003,-0.6749013684536873,0.6549173485183523,0.46645669588800454,-35.93743790733349,-16.8101959091254,-3.140696884667837,-41.84928358673226,-9.992144155897142,24.6,0x0000,0x4056
201,6.9997917830000915,adis16470,0.1375,-0.64375,0.5325,1.348414375,-6.3130309375,5.222041125,-46.469,48.42400000000001,20.326,-0.811037050109245,0.8451582369857342,0.35475562376036746,-37.814740808714305,-15.006113509372588,-2.4319178414573885,-50.40297584322637,-9.346108541415646,24.5,0x0000,0x4056
202,7.03462227,adis16470,0.11750000000000001,-0.68625,0.6950000000000001,1.152281375,-6.7298135624999995,6.81562175,-41.86900000000001,37.224000000000004,18.026,-0.7307519045175059,0.6496813607623693,0.3146130509644978,-39.38034128022902,-13.572585356883643,-1.804062130844944,-44.63704516587716,-6.859815039482324,24.400000000000002,0x0000,0x4056
203,7.069545900000321,adis16470,0.09,-0.6875,0.62375,0.8825985,-6.742071875,6.1168979375,-47.169000000000004,21.524,-9.474,-0.8232543548732054,0.37566466819925953,-0.16535249333394278,-41.16277226171796,-12.675223134129995,-2.1349292930669823,-47.783399161123576,-5.537665604433495,24.400000000000002,0x0000,0x4056
204,7.1043927320001785,adis16470,0.155,-0.7025,0.60875,1.5200307499999999,-6.8891716249999995,5.9697981874999995,-47.669000000000004,-1.276,-16.674,-0.831981001133177,-0.022270401255447644,-0.2910161994775345,-42.94919987377109,-12.65462827603813,-2.7159659867716623,-49.08949834487058,-9.466714592185719,24.3,0x0000,0x4056
205,7.139225008000267,adis16470,0.225,-0.725,0.5775,2.20649625,-7.1098212499999995,5.663340375,-36.869,-13.476,-15.774000000000001,-0.6434854419177893,-0.23520056999875585,-0.27530823620958556,-44.377979087509026,-13.13443575163931,-3.265410024460885,-51.46086507108783,-13.64442612462142,24.900000000000002,0x0000,0x4056
206,7.174045914000089,adis16470,0.16625,-0.755,0.58375,1.6303555625,-7.40402075,5.7246319375,-26.669000000000004,16.224,4.8260000000000005,-0.4654618582143678,0.28316221784356005,0.08422958970124635,-45.446272395847885,-12.515751350213774,-3.097365138045802,-52.289564372999756,-9.881867487804929,24.400000000000002,0x0000,0x4056
207,7.2088878570002635,adis16470,0.125,-0.7625000000000001,0.59875,1.22583125,-7.477570625,5.8717316875,-21.469,23.224000000000004,12.726,-0.37470473711066266,0.4053352654831632,0.2221106006087984,-46.307599103536106,-11.619383433710084,-2.6539644461887004,-51.85937006058825,-7.346840494130108,24.5,0x0000,0x4056
208,7.243732189000184,adis16470,0.12,-0.77125,0.645,1.1767979999999998,-7.5633788125,6.32528925,-13.469,33.024,18.926000000000002,-0.23507839695111624,0.5763775321786074,0.33032101423244686,-46.8432613428558,-10.395435784778082,-1.9945002780852004,-50.09410211204869,-6.806291893009243,24.3,0x0000,0x4056
209,7.278540743000121,adis16470,0.04875,-0.73625,0.5875,0.47807418749999997,-7.2201460625,5.761406875,-11.769,26.224000000000004,19.226000000000003,-0.20540779966721265,0.457695143042993,0.33555700198842986,-47.336092288821355,-9.352221654598997,-1.3252731337462667,-51.4114403469213,-2.962744412829276,24.5,0x0000,0x4056
210,7.3133959639999375,adis16470,-0.01125,-0.77875,0.63375,-0.1103248125,-7.6369286875,6.2149644375,-6.969,24.724000000000004,14.926,-0.12163199557148484,0.4315152042630781,0.26050784415267364,-47.64464205277353,-8.30781100133725,-0.8050230154961721,-50.86115983587661,0.6419588540496501,24.5,0x0000,0x4056
211,7.34825466600023,adis16470,0.065,-0.8275,0.65625,0.63743225,-8.115002875,6.4356140625,-3.469,36.924,19.026,-0.06054547175168329,0.6444453730063863,0.33206634348444114,-47.841930961858274,-6.950712604882944,-0.1418020552104683,-51.58377677168406,-3.5218371547534226,24.6,0x0000,0x4056
212,7.383085701000255,adis16470,0.02875,-0.84875,0.6637500000000001,0.2819411875,-8.3233941875,6.5091639375,-8.369,29.824,16.326,-0.14606660509940544,0.5205269961147889,0.28494245368059423,-48.21023161613462,-5.824244272914835,0.4268485242720069,-51.97344056623349,-1.5284542351790227,24.1,0x0000,0x4056
213,7.417927737000355,adis16470,0.01125,-0.86,0.6425,0.1103248125,-8.433719,6.300772625,-9.369,28.524,14.126000000000001,-0.16351989761934874,0.49783771583886255,0.246545210136719,-48.63067078292508,-4.74580873590921,0.9190279017376277,-53.236847977298616,-0.6004218031120876,24.200000000000003,0x0000,0x4056
214,7.452729568999985,adis16470,-0.058750000000000004,-0.80375,0.50625,-0.5761406875,-7.882094937499999,4.9646165625,-15.769,20.124000000000002,9.826,-0.27522096974698584,0.35123005867133894,0.17149605230096282,-49.35176764925014,-3.8937644906254723,1.260990526099862,-57.79481365598323,3.539169986590874,24.400000000000002,0x0000,0x4056
215,7.487580679000075,adis16470,-0.0425,-0.76375,0.40125,-0.416782625,-7.4898289375,3.9349183125,-8.869,12.624,3.126,-0.15479325135937708,0.22033036477176418,0.05455899241734274,-49.91332500371636,-3.3283232717477964,1.3699352084963765,-62.28398949266347,2.8202139650605145,24.200000000000003,0x0000,0x4056
216,7.52243956600023,adis16470,-0.03875,-0.79125,0.53125,-0.38000768749999997,-7.7595118124999996,5.209782812499999,6.031,16.424000000000003,2.326,0.10526080718777801,0.2866528763475487,0.04059635840138811,-49.83147615224752,-2.6541184964723246,1.4510170238522695,-56.12235147247468,2.328304557006792,24.3,0x0000,0x4056
217,7.55726839800036,adis16470,-0.02625,-0.8,0.49625,-0.25742456249999995,-7.84532,4.8665500625,8.031,12.324,-4.174,0.1401673922276646,0.21509437701578116,-0.07285004297824332,-49.724493748639475,-2.1484465473545575,1.3056415583907854,-58.1881556347436,1.5971946803026658,24.1,0x0000,0x4056
218,7.592117174000123,adis16470,0.02,-0.835,0.68,0.196133,-8.18855275,6.668522,19.931,3.9240000000000004,-5.274000000000001,0.34786157321498984,0.0684867198482575,-0.09204866475018096,-49.06615816103054,-1.992746347988636,1.1218495040423093,-50.84161886681889,-1.0640056048278388,24.400000000000002,0x0000,0x4056
219,7.6269350430002305,adis16470,-0.00875,-0.82125,0.6012500000000001,-0.08580818750000001,-8.053711312499999,5.8962483125,10.531,3.024,-6.174,0.18380062352752286,0.052778756580308527,-0.10775662801812991,-48.80133153982665,-1.8398567031047146,0.906883406654101,-53.791557034131465,0.49254955889043667,24.400000000000002,0x0000,0x4056
220,7.6617438749999565,adis16470,0.0,-0.8150000000000001,0.6275000000000001,0.0,-7.99241975,6.153672875,10.031,-1.476,-3.6740000000000004,0.1750739772675512,-0.025761059759436305,-0.06412339671827168,-48.531241030702844,-1.8534096342748345,0.7789963016383697,-52.40593563459651,-0.0,24.400000000000002,0x0000,0x4056
221,7.69655809599999,adis16470,-0.00375,-0.81625,0.6425,-0.03677493749999999,-8.0046780625,6.300772625,0.531,-2.176,-1.974,0.00926769832808989,-0.03797836452339661,-0.03445279943436806,-48.57834826330599,-1.8864452246711463,0.7102731379540536,-51.792432446018,0.20683648151065806,24.200000000000003,0x0000,0x4056
222,7.731336725000347,adis16470,-0.00875,-0.7987500000000001,0.59375,-0.08580818750000001,-7.8330616875,5.8226984375,-2.469,1.2240000000000002,2.126,-0.04309217923174,0.021362830044410596,0.037105699897399445,-48.75842776409689,-1.7969243958884633,0.784212501081868,-53.3747701087939,0.5037132215402217,24.5,0x0000,0x4056
223,7.766145298000083,adis16470,-0.00875,-0.8125,0.635,-0.08580818750000001,-7.967903124999999,6.22722275,0.6310000000000001,1.824,2.626,0.011013027580084222,0.03183480555637657,0.04583234615737109,-48.80155442999312,-1.6890418633329534,0.8756196693495093,-51.99100562694601,0.4861561271312385,24.5,0x0000,0x4056
224,7.800992074000078,adis16470,0.06,-0.79,0.59125,0.5883989999999999,-7.7472535,5.7981818125,-2.769,5.524,5.8260000000000005,-0.048328166987722986,0.09641198788016676,0.10168288222118965,-48.98384825320389,-1.5362084537314504,1.078638390392527,-53.18816747693089,-3.4796225567970893,24.5,0x0000,0x4056
225,7.835835906000284,adis16470,-0.02875,-0.79125,0.59875,-0.2819411875,-7.7595118124999996,5.8717316875,-1.1690000000000003,-2.076,1.026,-0.020402898955813716,-0.03623303527140228,0.01790707812546182,-49.101782912247444,-1.5431804493308068,1.1143881045684128,-52.88469487233201,1.6596400361134012,24.6,0x0000,0x4056
226,7.870674682000299,adis16470,-0.03625,-0.80375,0.5650000000000001,-0.35549106249999995,-7.882094937499999,5.54075725,-1.2690000000000001,-3.7760000000000002,-0.974,-0.022148228207808044,-0.06590363255530589,-0.01699950691442477,-49.260963698936564,-1.5989754757919,1.0804551182385937,-54.894511134820284,2.1130814336601444,24.5,0x0000,0x4056
227,7.90557184599993,adis16470,-0.025,-0.795,0.58625,-0.24516625,-7.79628675,5.7491485625,2.531,-4.776000000000001,-2.5740000000000003,0.044174283367976484,-0.0833569250752492,-0.044924774946334046,-49.26106869155559,-1.7013360998130282,0.9906294371497204,-53.59414306685807,1.4498018667190904,24.6,0x0000,0x4056
228,7.9404316039999685,adis16470,-0.03,-0.7987500000000001,0.6125,-0.29419949999999995,-7.8330616875,6.006573125,6.531,-1.576,0.32600000000000007,0.11398745344774966,-0.027506389011430633,0.005689773361501516,-49.10309533022737,-1.6870061180425644,1.0019937061957123,-52.518173679834995,1.7071700832122494,24.400000000000002,0x0000,0x4056
229,7.975291843000377,adis16470,-0.015,-0.795,0.61125,-0.14709974999999997,-7.79628675,5.994314812499999,6.631,-2.676,-2.6740000000000004,0.11573278269974399,-0.046705010783368264,-0.04667010419832838,-48.94338777629198,-1.7275471835970875,0.9087774297838065,-52.44447130416847,0.8569544517386536,24.8,0x0000,0x4056
230,8.01010221200022,adis16470,-0.02875,-0.7875,0.57125,-0.2819411875,-7.722736874999999,5.6020488125,6.231,-6.176,-2.5740000000000003,0.10875146569176668,-0.1077915346031698,-0.044924774946334046,-48.832815677677466,-1.8698302491276229,0.8191760625005386,-54.04298791843342,1.6926912153740468,24.400000000000002,0x0000,0x4056
231,8.04490572900022,adis16470,-0.0225,-0.7887500000000001,0.5975,-0.220649625,-7.7349951875,5.859473375,13.931000000000001,-5.976,-6.274000000000001,0.24314181809533006,-0.10430087609918114,-0.10950195727012425,-48.4381094965776,-2.0102079501215226,0.6008186776349445,-52.85506156364164,1.3025953269157815,24.6,0x0000,0x4056
232,8.079750034999961,adis16470,-0.0175,-0.7475,0.63625,-0.17161637500000002,-7.3304708750000005,6.2394810624999995,22.631,-0.876,-2.474,0.39498546301883675,-0.015289084247470327,-0.043179445694339715,-47.68848022277329,-1.9794903093933864,0.51461299374267,-49.59654911118715,1.0213461862820516,24.400000000000002,0x0000,0x4056
233,8.114559378000195,adis16470,-0.07875,-0.74875,0.64625,-0.7722736874999999,-7.3427291875,6.337547562499999,28.831,-14.376000000000001,-12.474,0.5031958766424851,-0.2509085332667048,-0.21771237089377268,-46.7352496411974,-2.339261333858338,0.08040494146808813,-49.20235321238459,4.552286591093999,24.5,0x0000,0x4056
234,8.149361944000248,adis16470,0.04875,-0.745,0.675,0.47807418749999997,-7.305954249999999,6.61948875,30.631,-25.076,-15.474,0.5346118031783831,-0.4376587632300981,-0.27007224845360256,-45.712273924930194,-3.203253531710322,-0.45812851026204177,-47.8221552998118,-2.7762386205604237,24.900000000000002,0x0000,0x4056
235,8.184166564999941,adis16470,0.02875,-0.71625,0.665,0.2819411875,-7.0240130625,6.52142225,30.831,-28.576,-16.474,0.5381024616823717,-0.4987452870498996,-0.2875255409735459,-44.6889270411569,-4.147572169282807,-1.0314998366184878,-47.12493196898891,-1.6849197750226566,24.400000000000002,0x0000,0x4056
236,8.218917260000126,adis16470,0.02125,-0.7000000000000001,0.70625,0.2083913125,-6.864655,6.9259465625,30.331,-16.676,-15.574000000000002,0.5293758154224001,-0.2910511060625744,-0.2718175777055969,-43.65711104767753,-4.657018814261031,-1.572708032693218,-44.745353767727146,-1.2242317580317161,24.400000000000002,0x0000,0x4056
237,8.253714974000104,adis16470,0.10250000000000001,-0.69625,0.71125,1.005181625,-6.8278800625,6.9749798125,28.731,-10.276000000000002,-16.374000000000002,0.5014505473904909,-0.17935003393493734,-0.28578021172155155,-42.691983553366335,-5.0319019757706585,-2.1424833783727086,-44.389410900283956,-5.879767267297031,24.6,0x0000,0x4056
238,8.288520169000094,adis16470,0.0625,-0.66625,0.69625,0.612915625,-6.5336805625,6.8278800625,29.531,-15.876000000000001,-9.974,0.5154131814064454,-0.2770884720466198,-0.17407913959391444,-41.7056412492412,-5.54699593876492,-2.4896303833287137,-43.73864536379625,-3.71080438822739,24.200000000000003,0x0000,0x4056
239,8.323317234000115,adis16470,0.08875,-0.64125,0.685,0.8703401874999999,-6.288514312499999,6.71755525,48.031,8.824,-2.8740000000000006,0.8382990930253964,0.15400785319597965,-0.05016076270231704,-40.09582460858003,-5.243211548592528,-2.5896374700272897,-43.11062643251778,-5.4032406327840174,24.700000000000003,0x0000,0x4056
240,8.358118392000051,adis16470,0.20500000000000002,-0.63875,0.775,2.01036325,-6.2639976875,7.60015375,54.431000000000004,9.624,-2.7740000000000005,0.9500001651530336,0.16797048721193428,-0.04841543345032271,-38.22743603318184,-5.040856072690279,-2.6861757796809376,-39.49512687873084,-11.536811190116222,24.400000000000002,0x0000,0x4056
241,8.392921772000136,adis16470,0.135,-0.62,0.55125,1.32389775,-6.0801229999999995,5.4059158125,57.831,5.724,7.8260000000000005,1.0093413597208407,0.09990264638415543,0.13658946726107624,-36.45761525650237,-4.929656978849349,-2.41380481736277,-48.359291521886504,-9.242403811917743,24.6,0x0000,0x4056
242,8.427719763000368,adis16470,-0.03375,-0.50875,1.0275,-0.3309744375,-4.9891331875,10.076332875,97.13100000000001,-5.5760000000000005,18.526,1.6952557557546124,-0.09731955909120382,0.3233396972244695,-32.94293344360686,-4.9874950507873255,-1.7691379215556424,-26.34156804125651,1.6860756079939263,24.5,0x0000,0x4056
243,8.46250127300027,adis16470,0.11875000000000001,-0.545,0.99875,1.1645396875,-5.34462425,9.7943916875,78.93100000000001,27.024,6.026,1.3776058318916444,0.4716577770589476,0.10517354072517829,-30.16604800753009,-4.085775276868411,-1.5595442048410586,-28.62050715021349,-5.958421294146436,24.400000000000002,0x0000,0x4056
244,8.49726543199995,adis16470,-0.00125,-0.5075000000000001,0.8150000000000001,-0.0122583125,-4.976874875,7.99241975,47.831,6.424,0.42600000000000005,0.8348084345214078,0.11211995114811574,0.007435102613495844,-28.571392094607685,-3.7837098551796977,-1.5447347050570515,-31.910496549845085,0.07459650237794717,24.6,0x0000,0x4056
245,8.53206503399997,adis16470,0.0025,-0.48625,0.99625,0.024516625,-4.7684835625,9.769875062499999,56.431000000000004,9.123999999999999,4.126,0.9849067501929202,0.15924384095196262,0.07201228493728604,-26.59578422377675,-3.3994583397227554,-1.4011514688117939,-26.016091772462392,-0.12920944044812957,24.5,0x0000,0x4056
246,8.56686115499997,adis16470,0.06875,-0.47250000000000003,1.0025,0.6742071875,-4.633642125,9.831166624999998,38.031,12.124,-0.874,0.6637661678259634,0.21160371851179252,-0.015254177662430441,-25.271713596121263,-2.9890324678182196,-1.4315632942980243,-25.235518994634898,-3.5497158172166707,25.0,0x0000,0x4056
247,8.601660443000128,adis16470,-0.02875,-0.4175,0.81125,-0.2819411875,-4.094276375,7.9556448125,19.631,17.124000000000002,-1.6740000000000002,0.34262558545900684,0.29887018111150904,-0.02921681167838508,-24.641439113357958,-2.3091700991449224,-1.4898172706038646,-27.23206749507527,1.804854530482676,24.400000000000002,0x0000,0x4056
248,8.636432581999998,adis16470,-0.01625,-0.42125,0.885,-0.1593580625,-4.1310513124999995,8.67888525,24.131,18.524,-7.774000000000001,0.42116540179875167,0.32330479063942963,-0.1356818960500392,-23.83538350924776,-1.612752937612724,-1.7601360346707422,-25.453920380602344,0.9498337848785248,24.6,0x0000,0x4056
249,8.671196778000194,adis16470,0.02375,-0.3725,0.785,0.2329079375,-3.6529771249999996,7.698220249999999,23.031,24.224000000000004,-8.674000000000001,0.401966780026814,0.42278855800310644,-0.15138985931798818,-23.081741959192247,-0.78652623275006,-2.061680826906796,-25.38538202554495,-1.5657053713508526,24.3,0x0000,0x4056
250,8.705994417000056,adis16470,-0.04125,-0.36875,0.8200000000000001,-0.4045243125,-3.6162021875,8.041453,36.931,38.324000000000005,1.026,0.6445675460540258,0.6688799825343069,0.01790707812546182,-21.84496407819677,0.5886522507071135,-2.025978505722807,-24.21321706989455,2.6268500885452553,24.5,0x0000,0x4056
251,8.740858371000286,adis16470,0.0475,-0.31375000000000003,0.85875,0.465815875,-3.0768364375,8.4214606875,48.531,48.624,2.026,0.8470257392853681,0.8486488954897229,0.03536037064540511,-20.151313603447534,2.1787287334166727,-1.9553436871733918,-20.070110909373604,-2.9740702279273004,24.400000000000002,0x0000,0x4056
252,8.775675028000023,adis16470,0.00625,-0.33375,0.8575,0.0612915625,-3.2729694374999996,8.409202375,59.331,57.124,6.926,1.0355212985007558,0.9970018819092409,0.12088150399312726,-18.14923330960102,4.0764541057121395,-1.7142042826514523,-21.266625863889587,-0.3891637623574965,24.400000000000002,0x0000,0x4056
253,8.81047203800017,adis16470,-0.1125,-0.25625,0.86625,-1.103248125,-2.5129540624999995,8.4950105625,65.031,37.824000000000005,-1.474,1.1350050658644326,0.6601533362743353,-0.025726153174396416,-15.898206001563324,5.426738064611332,-1.7654949928478725,-16.479022971750556,7.098812633439484,24.900000000000002,0x0000,0x4056
254,8.845267344000149,adis16470,-0.0625,-0.2725,0.925,-0.612915625,-2.672312125,9.07115125,69.63100000000001,32.824000000000005,-13.974,1.2152902114561719,0.5728868736746188,-0.2438923096736876,-13.534159040841729,6.511649814749814,-2.2517248643947596,-16.414688443398546,3.708359929693732,24.8,0x0000,0x4056
255,8.880067835000318,adis16470,-0.055,-0.25,0.95125,-0.53936575,-2.4516625,9.3285758125,63.731,16.524,-9.874,1.1123157855885062,0.28839820559954304,-0.1723338103419201,-11.384468417886099,7.008970667197372,-2.5953441818531764,-14.725031308715009,3.2006300022015703,24.3,0x0000,0x4056
256,8.914864216000296,adis16470,-0.11375,-0.2525,0.9500000000000001,-1.1155064375,-2.476179125,9.3163175,63.431000000000004,15.824,-6.274000000000001,1.1070797978325233,0.2761809008355827,-0.10950195727012425,-9.291441756456846,7.540414301418175,-2.813656789180699,-14.884484210658627,6.600859707025402,24.6,0x0000,0x4056
257,8.949723521000124,adis16470,-0.10125,-0.225,0.99375,-0.9929233125,-2.20649625,9.7453584375,61.331,14.224,-8.574,1.0704278835406422,0.24825563280367344,-0.14964453006599382,-7.265552165133345,7.989030144888926,-3.1125425365847588,-12.757532160876679,5.674939542054883,24.6,0x0000,0x4056
258,8.984556030000022,adis16470,-0.0975,-0.23625000000000002,1.1075,-0.9561483749999999,-2.3168210625,10.860864874999999,59.731,13.824,-0.5740000000000001,1.042502615508733,0.2412743157956961,-0.010018189906447452,-5.32210609370865,8.399563318262349,-3.1325364070825907,-12.041750434655876,4.920971004606062,24.8,0x0000,0x4056
259,9.019348614000137,adis16470,-0.10375000000000001,-0.24375,1.1025,-1.0174399375,-2.3903709374999997,10.811831625,47.131,9.424,10.126000000000001,0.8225911297574474,0.1644798287079456,0.17673204005694584,-3.8579903630917727,8.657897411286436,-2.780227076160066,-12.466888663177492,5.249904785970796,24.1,0x0000,0x4056
260,9.054193159000079,adis16470,-0.17125,-0.165,0.96375,-1.6793888125,-1.61809725,9.451158937499999,28.331,-46.976,6.626,0.4944692303825135,-0.8198858694168563,0.11564551623714428,-3.0076974138581494,7.079303156717477,-2.549347120990452,-9.715202316684687,9.934194632784317,24.700000000000003,0x0000,0x4056
261,9.089028808999956,adis16470,-0.16375,-0.09,0.985,-1.6058389375,-0.8825985,9.659550249999999,37.831,-57.976,5.726,0.6602755093219749,-1.0118720871362326,0.0999375529691953,-1.7604402101847247,5.146474332445838,-2.3498772385721876,-5.220651230623926,9.400284096642908,24.3,0x0000,0x4056
262,9.12386234700034,adis16470,-0.1225,-0.06375,1.0925,-1.201314625,-0.6251739374999999,10.713765125,46.831,-30.076,-11.074000000000002,0.8173551420014645,-0.5249252258298146,-0.1932777613658521,-0.19336401334211772,4.144587107342431,-2.7356226202411853,-3.3395594341642343,6.386971922747948,24.3,0x0000,0x4056
263,9.158680330000152,adis16470,0.14625,-0.7275,1.49875,1.4342225624999998,-7.134337875,14.6977166875,39.131,-32.076,-63.174,0.6829647895979011,-0.5598318108697011,-1.1025943016548978,0.6278771740608371,2.8668692668401032,-4.935219753477338,-25.892145109407213,-5.016899234447601,24.400000000000002,0x0000,0x4056
264,9.193484314000216,adis16470,0.0,-0.035,0.9175,0.0,-0.34323275000000003,8.997601374999999,29.331,1.624,-10.574000000000002,0.5119225229024568,0.028344147052387914,-0.18455111510588043,1.572037273176149,2.8649226151982914,-5.303233738906881,-2.1846107891316167,-0.0,24.3,0x0000,0x4056
265,9.228307981999933,adis16470,0.02625,-0.0225,1.01,0.25742456249999995,-0.220649625,9.9047165,6.531,-2.076,5.126,0.11398745344774966,-0.03623303527140228,0.08946557745722934,1.73795882550395,2.7070073543228763,-5.124726663302758,-1.2761800436674293,-1.4884187042740247,24.900000000000002,0x0000,0x4056
266,9.263146112999948,adis16470,0.03625,-0.03125,0.9825,0.35549106249999995,-0.3064578125,9.635033625,1.931,-0.076,2.026,0.033702307856010506,-0.0013264502315156904,0.03536037064540511,1.7326911478732296,2.6080336476872117,-5.054144684858857,-1.8217706722134814,-2.1119409154045385,24.400000000000002,0x0000,0x4056
267,9.298015114000009,adis16470,0.03375,0.02625,1.0150000000000001,0.3309744375,0.25742456249999995,9.95374975,9.331000000000001,3.224,2.726,0.1628566725035909,0.05626941508429719,0.04757767540936542,2.046522714125107,2.6279662256417904,-4.959091534614893,1.4814571708870743,-1.903817448325799,24.900000000000002,0x0000,0x4056
268,9.332861542000046,adis16470,0.0475,-0.005,1.01,0.465815875,-0.04903325,9.9047165,9.531,-1.276,2.426,0.16634733100757956,-0.022270401255447644,0.042341687653382434,2.3253972897704434,2.477980549020754,-4.874554371998135,-0.2836401557578161,-2.69258654380652,24.3,0x0000,0x4056
269,9.36773667200032,adis16470,0.00375,0.00125,1.00625,0.03677493749999999,0.0122583125,9.8679415625,1.931,0.6240000000000001,11.126000000000001,0.033702307856010506,0.010890854532444618,0.19418533257688914,2.346310121343742,2.4454773988360454,-4.486532017848508,0.07117484477156402,-0.2135234909066524,24.5,0x0000,0x4056
270,9.402513303999967,adis16470,-0.01875,-0.03875,0.99,-0.1838746875,-0.38000768749999997,9.7085835,0.33100000000000007,0.024000000000000007,-1.274,0.005777039824101232,0.0004188790204786392,-0.02223549467040776,2.265834830308222,2.419069545284388,-4.530837210052828,-2.2414936081103245,1.0841876207568686,24.400000000000002,0x0000,0x4056
271,9.437359861000004,adis16470,-0.025,-0.0825,1.00375,-0.24516625,-0.809048625,9.843424937499998,1.031,0.12400000000000001,-16.774,0.017994344588061536,0.002164208272472969,-0.2927615287295289,2.1617530129324205,2.4033618383752495,-5.115357097772032,-4.698680517299441,1.4219551645477515,24.700000000000003,0x0000,0x4056
272,9.472183011000197,adis16470,-0.00375,0.00875,1.00375,-0.03677493749999999,0.08580818750000001,9.843424937499998,0.6310000000000001,1.7240000000000002,1.9260000000000002,0.011013027580084222,0.030089476304382246,0.03361504139341079,2.1500408374129854,2.4184096745038883,-5.048288032513762,0.4994524255793412,0.21404733288736985,24.6,0x0000,0x4056
273,9.507002290999935,adis16470,0.00125,0.005,1.0025,0.0122583125,0.04903325,9.831166624999998,-0.16899999999999998,-0.076,-0.474,-0.0029496064358704166,-0.0013264502315156904,-0.008272860654453122,2.106988518526045,2.3660193482166108,-5.0647923006077376,0.2857621168765344,-0.07144019601617131,24.3,0x0000,0x4056
274,9.541815645000042,adis16470,-0.02375,-0.00125,1.00375,-0.2329079375,-0.0122583125,9.843424937499998,-0.16899999999999998,-0.276,-10.974,-0.0029496064358704166,-0.00481710873550435,-0.19153243211385773,2.0576559274022155,2.336391399602926,-5.446833432857432,-0.07135211692916192,1.3554369596815536,24.400000000000002,0x0000,0x4056
275,9.576571592000164,adis16470,0.025,0.0025,0.99875,0.24516625,0.024516625,9.7943916875,-0.969,-1.976,-14.174000000000001,-0.01691224045182505,-0.034487706019407954,-0.2473829681776763,1.9863662168743101,2.1936816724352273,-5.939464494940307,0.14341842264918372,-1.4338833068057146,24.3,0x0000,0x4056
276,9.611337039000318,adis16470,0.005,0.00375,0.9975,0.04903325,0.03677493749999999,9.782133375,-0.5690000000000001,0.22400000000000003,-5.3740000000000006,-0.009930923443847736,0.003909537524467299,-0.09379399400217528,1.9315609064378179,2.151695904981097,-6.1262941092265,0.21539665260707627,-0.2871924550917851,24.3,0x0000,0x4056
277,9.646147781000309,adis16470,-0.00125,-0.00125,1.00125,-0.0122583125,-0.0122583125,9.8189083125,-0.369,0.22400000000000003,0.02600000000000001,-0.006440264939859076,0.003909537524467299,0.00045378560551852584,1.8789108356801958,2.117734237214982,-6.125389030896502,-0.0715302743396037,0.071530218596146,24.8,0x0000,0x4056
278,9.681020116000127,adis16470,0.0075,0.0025,1.0025,0.07354987499999999,0.024516625,9.831166624999998,-0.369,0.024000000000000007,-3.8740000000000006,-0.006440264939859076,0.0004188790204786392,-0.06761405522226034,1.83157970423465,2.067627003084786,-6.260484669755306,0.142881946987328,-0.4286373999344641,24.400000000000002,0x0000,0x4056
279,9.71584580200033,adis16470,-0.00125,0.005,1.00125,-0.0122583125,0.04903325,9.8189083125,-0.269,0.22400000000000003,-4.074000000000001,-0.004694935687864747,0.003909537524467299,-0.071104713726249,1.7914897496499123,2.0353499773603168,-6.402364367855835,0.28611886764947253,0.07152938245991898,24.5,0x0000,0x4056
280,9.750645638000151,adis16470,-0.02125,0.00375,1.00375,-0.2083913125,0.03677493749999999,9.843424937499998,0.131,0.524,-13.774000000000001,0.002286381320112572,0.009145525280450288,-0.24040165116969897,1.7644086644742891,2.036769319522341,-6.881697047214124,0.21405546554562488,1.212796984168995,24.5,0x0000,0x4056
281,9.785409269999946,adis16470,0.07625,0.0625,0.9875,0.7477570625,0.612915625,9.684066875,-2.569,0.924,-25.874000000000002,-0.04483750848373433,0.016126842288427607,-0.45158649066101286,1.7140285700706823,1.9393818733714663,-7.781171261588575,3.6214847041173397,-4.406561190464669,24.400000000000002,0x0000,0x4056
282,9.82022027200037,adis16470,0.03125,0.01125,1.01125,0.3064578125,0.1103248125,9.9169748125,-2.269,1.024,-12.474,-0.03960152072775134,0.017872171540421936,-0.21771237089377268,1.6150890841400114,1.9001297814285132,-8.215404162069314,0.6373804005492331,-1.7699014166190252,24.400000000000002,0x0000,0x4056
283,9.855027237000286,adis16470,0.005,0.0,1.0175,0.04903325,0.0,9.978266375,0.43100000000000005,0.22400000000000003,-12.274000000000001,0.007522369076095561,0.003909537524467299,-0.21422171238978402,1.597489068334068,1.8641370212396202,-8.642624850483866,0.0,-0.28154947586019324,24.5,0x0000,0x4056
284,9.889836257000297,adis16470,-0.02125,-0.00125,1.0,-0.2083913125,-0.0122583125,9.80665,0.23100000000000004,-0.176,-2.0740000000000003,0.004031710572106902,-0.00307177948351002,-0.0361981286863624,1.5719869550983,1.8451974471317316,-8.714818720631342,-0.07161968708944809,1.2173511490910032,24.400000000000002,0x0000,0x4056
285,9.924663944000258,adis16470,-0.00625,-0.0275,0.9925,-0.0612915625,-0.269682875,9.733100125,0.931,-0.176,2.826,0.016249015336067207,-0.00307177948351002,0.049323004661359755,1.5405811702509966,1.809499542829616,-8.616393950483722,-1.5871344137227474,0.36066147397678483,24.5,0x0000,0x4056
286,9.959493057000145,adis16470,-0.00375,0.0025,1.0050000000000001,-0.03677493749999999,0.024516625,9.85568325,0.031000000000000014,-0.076,1.326,0.0005410520681182424,-0.0013264502315156904,0.02314306588144481,1.5136781727411976,1.7749912828082428,-8.57021111284731,0.14252652072657387,0.213788568426121,24.6,0x0000,0x4056
287,9.99434704000032,adis16470,-0.0025,0.005,1.0,-0.024516625,0.04903325,9.80665,0.23100000000000004,-0.076,-0.074,0.004031710572106902,-0.0013264502315156904,-0.0012915436464758037,1.4970243841633921,1.7397602796966578,-8.57279030758929,0.2864765102770745,0.14323735991995798,24.400000000000002,0x0000,0x4056
288,10.029138467999928,adis16470,0.0,0.0,0.99875,0.0,0.0,9.7943916875,1.331,-0.476,0.32600000000000007,0.023230332344044525,-0.008307767239493008,0.005689773361501516,1.5124651641183966,1.6887355599060172,-8.561448295867187,0.0,-0.0,24.5,0x0000,0x4056
289,10.064049928000259,adis16470,-0.00375,0.005,1.00375,-0.03677493749999999,0.04903325,9.843424937499998,0.131,-0.076,0.02600000000000001,0.002286381320112572,-0.0013264502315156904,0.00045378560551852584,1.4924059334135453,1.6566416910974482,-8.560540595021186,0.2854062546264104,0.21405280988181974,24.200000000000003,0x0000,0x4056
290,10.098941217000174,adis16470,-0.005,0.0025,1.0025,-0.04903325,0.024516625,9.831166624999998,0.131,0.12400000000000001,0.126,0.002286381320112572,0.002164208272472969,0.0021991148575128553,1.4698947903058879,1.633464064597872,-8.556144299537237,0.142881946987328,0.28576122833714346,24.3,0x0000,0x4056
291,10.13380839499996,adis16470,0.0,0.00125,1.0075,0.0,0.0122583125,9.880199875,-0.369,0.12400000000000001,0.126,-0.006440264939859076,0.002164208272472969,0.0021991148575128553,1.4293099762524417,1.6050318360929192,-8.551751042039191,0.07108653860321967,-0.0,24.400000000000002,0x0000,0x4056
292,10.168602908000139,adis16470,0.00125,0.00125,0.99625,0.0122583125,0.0122583125,9.769875062499999,0.131,-0.176,0.126,0.002286381320112572,-0.00307177948351002,0.0021991148575128553,1.4066284792986337,1.5654920607461629,-8.5473669357952,0.07188927157651441,-0.0718892149895397,24.400000000000002,0x0000,0x4056
293,10.203453532000367,adis16470,0.00125,-0.00125,0.9975,0.0122583125,-0.0122583125,9.782133375,0.33100000000000007,-0.076,0.02600000000000001,0.005777039824101232,-0.0013264502315156904,0.00045378560551852584,1.388364777267345,1.530150561145279,-8.5464608191032,-0.07179918486439799,-0.07179912848988938,24.400000000000002,0x0000,0x4056
294,10.238268525999956,adis16470,-0.00625,0.00125,0.99875,-0.0612915625,0.0122583125,9.7943916875,0.131,0.024000000000000007,-0.674,0.002286381320112572,0.0004188790204786392,-0.011763519158441782,1.366501207624599,1.507537233730712,-8.569926075183144,0.0717093236505815,0.35854184449703,24.6,0x0000,0x4056
295,10.27309613100033,adis16470,-0.0025,0.00375,1.00875,-0.024516625,0.03677493749999999,9.892458187499999,0.6310000000000001,0.12400000000000001,-1.874,0.011013027580084222,0.002164208272472969,-0.03270747018237374,1.364967824377106,1.484458664863094,-8.635193179360872,0.21299448171142213,0.1419957033786939,24.3,0x0000,0x4056
296,10.307937847000176,adis16470,0.00125,0.00375,1.0,0.0122583125,0.03677493749999999,9.80665,0.131,-0.176,0.22600000000000003,0.002286381320112572,-0.00307177948351002,0.0039444441095071855,1.346438625088811,1.4473275894020006,-8.627318926232865,0.2148581660301822,-0.07161918351935888,24.5,0x0000,0x4056
297,10.342799877000289,adis16470,0.00125,0.0025,1.0,0.0122583125,0.024516625,9.80665,0.23100000000000004,0.024000000000000007,0.126,0.004031710572106902,0.0004188790204786392,0.0021991148575128553,1.3302666600655575,1.4177685989427824,-8.622926333762834,0.14323915036830656,-0.07161946327920818,24.6,0x0000,0x4056
298,10.377615501000037,adis16470,0.045,0.00375,0.99875,0.44129925,0.03677493749999999,9.7943916875,-0.269,0.22400000000000003,3.026,-0.004694935687864747,0.003909537524467299,0.052813663165348405,1.2987857882750775,1.3454604592068318,-8.51757442499518,0.21512707234805006,-2.5797740622214937,24.3,0x0000,0x4056
299,10.412453958000242,adis16470,-0.0075,0.0,1.00375,-0.07354987499999999,0.0,9.843424937499998,-0.369,0.024000000000000007,2.726,-0.006440264939859076,0.0004188790204786392,0.04757767540936542,1.260211702538841,1.3279327553177191,-8.42260413424737,0.0,0.4281049559032857,24.400000000000002,0x0000,0x4056
300,10.447309211000174,adis16470,-0.00125,0.005,1.0050000000000001,-0.0122583125,0.04903325,9.85568325,-0.06899999999999999,-0.076,0.22600000000000003,-0.0012042771838760872,-0.0013264502315156904,0.0039444441095071855,1.238351585618596,1.3002033349122668,-8.414726859725354,0.28505127758382637,0.07126248867335802,24.6,0x0000,0x4056
301,10.482269240000278,adis16470,-0.0025,0.005,0.9975,-0.024516625,0.04903325,9.782133375,-0.16899999999999998,0.024000000000000007,0.126,-0.0029496064358704166,0.0004188790204786392,0.0021991148575128553,1.2135383513375448,1.2778934566423221,-8.410321886747383,0.28719448450717,0.14359634028729676,24.400000000000002,0x0000,0x4056
302,10.51716328800012,adis16470,-0.00375,0.005,1.0025,-0.03677493749999999,0.04903325,9.831166624999998,0.031000000000000014,0.22400000000000003,0.32600000000000007,0.0005410520681182424,0.003909537524467299,0.005689773361501516,1.1960429055784498,1.2642819066724793,-8.398946451223328,0.2857621168765344,0.21431969952431823,24.5,0x0000,0x4056
303,10.551981505000185,adis16470,-0.0025,0.0025,1.0025,-0.024516625,0.024516625,9.831166624999998,-0.269,0.024000000000000007,-0.5740000000000001,-0.004694935687864747,0.0004188790204786392,-0.010018189906447452,1.165800956810734,1.2426728187058613,-8.418932001591443,0.142881946987328,0.14288150270934405,24.6,0x0000,0x4056
304,10.586794165000356,adis16470,-0.0025,0.00625,1.0025,-0.024516625,0.0612915625,9.831166624999998,-0.469,0.22400000000000003,0.126,-0.008185594191853406,0.003909537524467299,0.0021991148575128553,1.1336283964993645,1.2283190046167323,-8.414545615755495,0.35720098009881457,0.14287917031791908,24.3,0x0000,0x4056
305,10.621658640000078,adis16470,-0.00375,0.0025,1.0025,-0.03677493749999999,0.024516625,9.831166624999998,0.031000000000000014,0.024000000000000007,0.126,0.0005410520681182424,0.0004188790204786392,0.0021991148575128553,1.1148726542090288,1.2088590740084497,-8.410152675525474,0.142881946987328,0.2143216987224072,24.1,0x0000,0x4056
306,10.65644082000017,adis16470,0.0,0.0025,0.99875,0.0,0.024516625,9.7943916875,-0.16899999999999998,0.12400000000000001,-0.074,-0.0029496064358704166,0.002164208272472969,-0.0012915436464758037,1.089682951054167,1.1889086185456443,-8.412726554107476,0.14341842264918372,-0.0,24.8,0x0000,0x4056
307,10.69127920300025,adis16470,0.0,0.0025,1.0,0.0,0.024516625,9.80665,0.23100000000000004,0.024000000000000007,0.02600000000000001,0.004031710572106902,0.0004188790204786392,0.00045378560551852584,1.0786408133121275,1.165949847553607,-8.41182075326348,0.14323915036830656,-0.0,24.8,0x0000,0x4056
308,10.726135030000023,adis16470,-0.00375,0.0025,1.00125,-0.03677493749999999,0.024516625,9.8189083125,0.031000000000000014,-0.376,0.02600000000000001,0.0005410520681182424,-0.006562437987498679,0.00045378560551852584,1.0609881230070404,1.134078967715076,-8.410914502255482,0.14306032570581104,0.21458926221858984,24.400000000000002,0x0000,0x4056
309,10.760971005000101,adis16470,-0.0025,0.00375,1.00125,-0.024516625,0.03677493749999999,9.8189083125,-0.16899999999999998,-0.076,0.22600000000000003,-0.0029496064358704166,-0.0013264502315156904,0.0039444441095071855,1.0382906218431525,1.1116639899743828,-8.403041567611407,0.21458993112939587,0.14305932233764715,24.6,0x0000,0x4056
310,10.79580394300001,adis16470,0.0,0.0025,0.99875,0.0,0.024516625,9.7943916875,-0.16899999999999998,0.12400000000000001,0.126,-0.0029496064358704166,0.002164208272472969,0.0021991148575128553,1.0146241527956787,1.0936636043043964,-8.398652622085427,0.14341842264918372,-0.0,24.5,0x0000,0x4056
311,10.830620826000086,adis16470,-0.005,0.00375,1.0,-0.04903325,0.03677493749999999,9.80665,0.131,0.024000000000000007,-0.174,0.002286381320112572,0.0004188790204786392,-0.0030368728984701333,1.0030986125605879,1.0783387130399906,-8.404710743545452,0.2148581660301822,0.28647449604392583,24.3,0x0000,0x4056
312,10.86542063600018,adis16470,0.0,0.0025,1.00625,0.0,0.024516625,9.8679415625,0.031000000000000014,0.22400000000000003,0.126,0.0005410520681182424,0.003909537524467299,0.0021991148575128553,0.9869408513068921,1.0644112174370737,-8.400325953499474,0.14234946987705996,-0.0,24.6,0x0000,0x4056
313,10.900249093000184,adis16470,-0.00125,0.00375,1.00375,-0.0122583125,0.03677493749999999,9.843424937499998,-0.16899999999999998,0.12400000000000001,-0.274,-0.0029496064358704166,0.002164208272472969,-0.004782202150464463,0.9657148515621224,1.048782381750004,-8.409868955649547,0.21405546554562488,0.07135161898196658,24.400000000000002,0x0000,0x4056
314,10.935105475,adis16470,-0.00125,0.0025,1.0,-0.0122583125,0.024516625,9.80665,-0.16899999999999998,0.12400000000000001,0.526,-0.0029496064358704166,0.002164208272472969,0.009180431865490174,0.9434924050019667,1.0334748845314674,-8.391534439805548,0.14323915036830656,0.07161946327920818,24.6,0x0000,0x4056
315,10.969958857000165,adis16470,-0.0025,0.005,0.99875,-0.024516625,0.04903325,9.7943916875,0.031000000000000014,0.12400000000000001,0.126,0.0005410520681182424,0.002164208272472969,0.0021991148575128553,0.9314180996902159,1.0199090866547618,-8.387142929927585,0.28683504810786925,0.14341662546994588,24.1,0x0000,0x4056
316,11.004796573000021,adis16470,-0.005,0.00375,1.0,-0.04903325,0.03677493749999999,9.80665,-0.16899999999999998,0.12400000000000001,0.02600000000000001,-0.0029496064358704166,0.002164208272472969,0.00045378560551852584,0.9113170877678164,1.0094738672857444,-8.386237150767585,0.2148581660301822,0.28647449604392583,24.400000000000002,0x0000,0x4056
317,11.0396285490001,adis16470,-0.0025,0.0025,1.0050000000000001,-0.024516625,0.024516625,9.85568325,0.23100000000000004,0.12400000000000001,0.32600000000000007,0.004031710572106902,0.002164208272472969,0.005689773361501516,0.9038265516047603,0.9963676999422602,-8.374881908661601,0.14252652072657387,0.14252607975583273,24.400000000000002,0x0000,0x4056
318,11.074481203000232,adis16470,0.00375,0.0,1.0025,0.03677493749999999,0.0,9.831166624999998,0.43100000000000005,0.024000000000000007,0.22600000000000003,0.007522369076095561,0.0004188790204786392,0.0039444441095071855,0.9004711470813964,0.9729736365437693,-8.367005175409616,0.0,-0.21432236513420277,24.6,0x0000,0x4056
319,11.109393725000245,adis16470,-0.0425,-0.0075,0.9975,-0.416782625,-0.07354987499999999,9.782133375,0.7310000000000001,-0.076,-3.2740000000000005,0.01275835683207855,-0.0013264502315156904,-0.057142079710294356,0.8988565198969454,0.9997064713600738,-8.481308350091659,-0.43078721700862843,2.439629128891042,24.5,0x0000,0x4056
320,11.144238582000071,adis16470,0.0025,0.01,1.0,0.024516625,0.0980665,9.80665,0.031000000000000014,0.024000000000000007,-8.974,0.0005410520681182424,0.0004188790204786392,-0.15662584707397115,0.8933967518792407,0.9776672544835615,-8.794006590381034,0.5729386976834859,-0.14323198897772707,24.5,0x0000,0x4056
321,11.17908288300032,adis16470,-0.00125,0.0025,1.00125,-0.0122583125,0.024516625,9.8189083125,-0.769,0.32400000000000007,0.126,-0.013421581947836395,0.005654866776461629,0.0021991148575128553,0.8521306891199528,0.97060826112656,-8.78961621311701,0.14306032570581104,0.07153005136655487,24.400000000000002,0x0000,0x4056
322,11.213914850000037,adis16470,-0.00375,0.0025,1.0,-0.03677493749999999,0.024516625,9.80665,-0.269,0.12400000000000001,0.126,-0.004694935687864747,0.002164208272472969,0.0021991148575128553,0.8287704454504975,0.9597260309222393,-8.785227380613039,0.14323915036830656,0.21485749460785525,24.5,0x0000,0x4056
323,11.248726615000123,adis16470,-0.00125,0.00625,1.0,-0.0122583125,0.0612915625,9.80665,-0.269,0.32400000000000007,0.126,-0.004694935687864747,0.005654866776461629,0.0021991148575128553,0.8101798675005064,0.9530172724480388,-8.780841112209052,0.35809395932357113,0.07161828830987142,24.6,0x0000,0x4056
324,11.283567156000117,adis16470,-0.00375,0.00125,0.9975,-0.03677493749999999,0.0122583125,9.782133375,0.43100000000000005,-0.176,0.126,0.007522369076095561,-0.00307177948351002,0.0021991148575128553,0.8101282252087757,0.9322555504981778,-8.776451196987013,0.07179918486439799,0.2153964834856751,24.400000000000002,0x0000,0x4056
325,11.318396105000375,adis16470,0.0025,0.005,1.0025,0.024516625,0.04903325,9.831166624999998,0.131,0.024000000000000007,0.42600000000000005,0.002286381320112572,0.0004188790204786392,0.007435102613495844,0.8041122412039099,0.9115720125473289,-8.761614072381017,0.2857621168765344,-0.14288016990025768,24.3,0x0000,0x4056
326,11.353236758000094,adis16470,0.00375,0.0025,1.0050000000000001,0.03677493749999999,0.024516625,9.85568325,0.131,0.12400000000000001,3.126,0.002286381320112572,0.002164208272472969,0.05455899241734274,0.7953533791982247,0.8932986459513624,-8.652701962905464,0.14252652072657387,-0.213788568426121,24.6,0x0000,0x4056
327,11.388082744000258,adis16470,0.01375,0.0075,0.9975,0.1348414375,0.07354987499999999,9.782133375,0.131,0.22400000000000003,8.326,0.002286381320112572,0.003909537524467299,0.1453161135210479,0.7925355693869293,0.8672876573057929,-8.362575207655684,0.43078721700862843,-0.7897191103268179,24.6,0x0000,0x4056
328,11.422916600999997,adis16470,-0.00375,0.005,0.99,-0.03677493749999999,0.04903325,9.7085835,4.231,0.12400000000000001,24.526,0.07384488065188008,0.002164208272472969,0.4280594523441293,0.9269069760872288,0.8585154366952239,-7.508238215952961,0.28937016344059907,0.2170256620221587,24.6,0x0000,0x4056
329,11.457742438999958,adis16470,0.00125,-0.00625,1.02125,0.0122583125,-0.0612915625,10.0150413125,8.131,12.324,15.426,0.14191272147965894,0.21509437701578116,0.2692344904126453,1.1788608981531563,1.2605514266941251,-6.971015980484511,-0.35064298784732967,-0.07012812479792421,24.3,0x0000,0x4056
330,11.492578629000036,adis16470,-0.02375,0.06375,1.03125,-0.2329079375,0.6251739374999999,10.1131078125,68.63100000000001,1.024,22.426000000000002,1.1978369189362286,0.017872171540421936,0.39140753805224837,3.5690602621010457,1.2966351122558104,-6.189778753789532,3.5374194299875135,1.3167931788420955,24.3,0x0000,0x4056
331,11.527423429999999,adis16470,-0.05625,0.1225,1.0925,-0.5516240625,1.201314625,10.713765125,54.331,-39.276,-25.474,0.9482548359010392,-0.6854955170132929,-0.44460517365303553,5.480923812400768,-0.011908998366918527,-7.077415214474171,6.397746502556265,2.92908538164714,24.400000000000002,0x0000,0x4056
332,11.562259471000289,adis16470,0.03875,0.1125,1.085,0.38000768749999997,1.103248125,10.640215249999999,28.331,-14.976,-12.374,0.4944692303825135,-0.2613805087786708,-0.21596704164177835,6.45690053535154,-0.5636320458708265,-7.508476856018783,5.919653206794059,-2.0345105375486274,24.6,0x0000,0x4056
333,11.597070773000269,adis16470,0.06125,0.1575,0.82125,0.6006573125,1.5445473749999998,8.053711312499999,36.831,-3.7760000000000002,-0.874,0.6428222168020316,-0.06590363255530589,-0.015254177662430441,7.8013797614191285,-0.7649623737934259,-7.53890185181084,10.856413348062244,-4.189239492996836,24.6,0x0000,0x4056
334,11.631881926000005,adis16470,-0.1325,0.2225,1.00375,-1.299381125,2.181979625,9.843424937499998,89.93100000000001,-3.576,14.226,1.5695920496110207,-0.062412974051317224,0.24829053938871334,10.963303836607325,-0.7247855455584538,-7.043679968318823,12.498584433825723,7.34360906136338,24.3,0x0000,0x4056
335,11.666641116999926,adis16470,0.0675,0.25,0.95375,0.661948875,2.4516625,9.353092437499999,99.93100000000001,6.824000000000001,-8.874,1.7441249748104537,0.11910126815609307,-0.15488051782197682,14.441855637399273,-0.5561643238476117,-7.352133526194902,14.688104591371813,-3.916382434815955,24.6,0x0000,0x4056
336,11.701410641000166,adis16470,0.10125,0.28375,1.02125,0.9929233125,2.7826369375,10.0150413125,111.23100000000001,-10.476,-1.574,1.9413471802858129,-0.18284069243892598,-0.027471482426390748,18.2536589669416,-1.0111323041883635,-7.406860553925279,15.527727926205491,-5.45659842178228,24.6,0x0000,0x4056
337,11.73621227600006,adis16470,0.10125,0.36125,0.9550000000000001,0.9929233125,3.5426523125,9.36535075,98.93100000000001,-43.276,-12.674000000000001,1.7266716822905104,-0.7553086870930661,-0.22120302939776135,21.677095410661064,-2.580127848305763,-7.847936932178878,20.720239581719312,-5.663130914521482,24.6,0x0000,0x4056
338,11.771010558999933,adis16470,0.13375,0.44875,0.8200000000000001,1.3116394375,4.4007341874999995,8.041453,107.73100000000001,-44.776,2.026,1.8802606564660114,-0.7814886258729811,0.03536037064540511,25.49122538862869,-4.218346761109236,-7.7774356857832645,28.689952158575018,-8.142886606993775,24.400000000000002,0x0000,0x4056
339,11.805804490000355,adis16470,-0.0075,0.46625,1.05625,-0.07354987499999999,4.5723505625,10.358274062499998,115.73100000000001,-39.876000000000005,3.926,2.0198869966255577,-0.6959674925252589,0.06852162643329739,29.403959451033106,-5.486231629969986,-7.640834563489185,23.817628018123607,0.37218088024890933,24.3,0x0000,0x4056
340,11.840571791999992,adis16470,0.04,0.50125,0.97375,0.392266,4.915583312499999,9.549225437499999,88.43100000000001,-18.776,-18.174,1.5434121108311059,-0.3277030203544553,-0.31719613825744947,32.37364843128471,-6.058075443722342,-8.272694837599689,27.237711913958073,-2.0917041032023467,24.400000000000002,0x0000,0x4056
341,11.875334965000093,adis16470,0.16125,0.5075000000000001,0.8025,1.5813223125,4.976874875,7.869836625,71.031,-10.176000000000002,-7.3740000000000006,1.2397248209840923,-0.177604704682943,-0.12870057904206186,34.79223858819229,-6.476355238569974,-8.529038608033032,32.309209500845164,-9.638303836964372,24.3,0x0000,0x4056
342,11.910133711000071,adis16470,0.09,0.56375,0.77,0.8825985,5.528498937499999,7.5511205,79.73100000000001,-5.476,-3.6740000000000004,1.391568465907599,-0.09557422983920949,-0.06412339671827168,37.539630993749974,-6.641325954526003,-8.656889200836954,36.20945681718605,-5.38755231467316,24.5,0x0000,0x4056
343,11.944961030000286,adis16470,0.15875,0.58625,0.6575,1.5568056875,5.7491485625,6.447872374999999,86.23100000000001,14.824,-16.274,1.5050148672872306,0.2587276083156394,-0.2840348824695572,40.566414041600986,-6.206856633180959,-9.223672603073242,41.72131267512751,-10.215749808791996,24.3,0x0000,0x4056
344,11.9797959790003,adis16470,0.14125000000000001,0.65,0.56625,1.3851893125,6.3743225,5.5530155625,88.031,-1.6760000000000002,-13.774000000000001,1.5364307938231283,-0.029251718263424965,-0.24040165116969897,43.73908941049009,-6.326042670000743,-9.703488694734423,48.939123397465565,-9.305376078963025,24.6,0x0000,0x4056
345,12.01462329900005,adis16470,0.06625,0.68375,0.5750000000000001,0.6496905625,6.705296937499999,5.63882375,96.73100000000001,-23.576,-19.974,1.688274438746635,-0.41147882445018313,-0.3486120647933474,47.16457311873185,-7.089011528119525,-10.399130682985964,49.9378210770877,-4.24106611885073,24.700000000000003,0x0000,0x4056
346,12.049433859000146,adis16470,0.0975,0.7725,0.465,0.9561483749999999,7.575637124999999,4.56009225,111.83100000000002,-12.276000000000002,-21.874000000000002,1.9518191557977789,-0.21425661897482393,-0.3817733205812397,51.21543385542854,-7.489454685396873,-11.160580919115064,58.95450917313684,-6.17167081663169,24.6,0x0000,0x4056
347,12.084286782000163,adis16470,0.06125,0.8175,0.6875,0.6006573125,8.016936375,6.742071875,119.531,-25.876,-3.0740000000000003,2.086209508201342,-0.4516213972460527,-0.05365142120630569,55.272525810438665,-8.28911489901606,-11.26771823572754,49.93688293700951,-3.281842390248677,24.400000000000002,0x0000,0x4056
348,12.119086575999972,adis16470,0.08625000000000001,0.87625,0.37375,0.8458235625,8.593077062499999,3.6652354375000002,93.13100000000001,-25.376,-11.474,1.6254425856748393,-0.4428947509860811,-0.20025907837382936,58.68120203654631,-9.0922192945944,-11.66701149662008,66.90012713421181,-5.173389616747121,24.400000000000002,0x0000,0x4056
349,12.153943665000043,adis16470,0.08875,0.895,0.61125,0.8703401874999999,8.77695175,5.994314812499999,110.83100000000002,-24.676000000000002,1.1260000000000001,1.9343658632778358,-0.4306774462221208,0.019652407377456153,62.40692010528985,-9.8469304265978,-11.627762497730144,55.668451830246944,-4.68132248997304,25.0,0x0000,0x4056
350,12.188794255000175,adis16470,-0.02125,0.88125,0.57875,-0.2083913125,8.6421103125,5.6755986875,77.531,-29.276,-29.274,1.3531712223637238,-0.51096259181386,-0.51092768522882,64.9408572948418,-10.626779618390296,-12.6479797232602,56.705589246207644,1.1546693960980459,24.3,0x0000,0x4056
351,12.22369462100005,adis16470,0.25875,0.905,0.23500000000000001,2.5374706874999995,8.87501825,2.30456275,55.231,-3.3760000000000003,-27.274,0.9639627991689882,-0.058922315547328574,-0.47602110018893345,67.03996524675775,-10.839084132715765,-13.59986395153964,75.4435756799257,-15.4685765534473,24.1,0x0000,0x4056
352,12.258534155000234,adis16470,0.1775,0.95375,0.3425,1.7406803749999997,9.353092437499999,3.358777625,66.43100000000001,-17.876,-8.674000000000001,1.1594396753923533,-0.3119950570865064,-0.15138985931798818,69.37220278248235,-11.431329195142732,-13.90205853046322,70.24634104715123,-9.9349106516825,24.400000000000002,0x0000,0x4056
353,12.293395744000009,adis16470,0.13,0.9712500000000001,0.22875,1.2748645,9.5247088125,2.2432711875,68.031,-13.576000000000002,-11.574000000000002,1.1873649434242624,-0.2369458992507502,-0.20200440762582372,71.84393838875344,-11.814975844429108,-14.305546781455549,76.74715045739109,-7.422883339250738,24.5,0x0000,0x4056
354,12.328206427000168,adis16470,0.08625000000000001,0.9550000000000001,0.18375,0.8458235625,9.36535075,1.8019719374999998,81.73100000000001,-18.676,-10.774000000000001,1.4264750509474857,-0.325957691102461,-0.1880417736098691,74.77743413808444,-12.317158182886503,-14.6805952808407,79.1089099782717,-5.068154123217061,24.8,0x0000,0x4056
355,12.363019184000223,adis16470,0.0525,0.98375,0.355,0.5148491249999999,9.6472919375,3.4813607499999994,84.93100000000001,-34.476,-7.8740000000000006,1.4823255870113041,-0.601719712917565,-0.13742722530203352,77.58258642775183,-13.304493271364187,-14.954711512132546,70.15730968920393,-2.873761690988833,24.400000000000002,0x0000,0x4056
356,12.39781999600018,adis16470,0.06375,0.94375,0.3725,0.6251739374999999,9.2550259375,3.6529771249999996,49.431000000000004,-29.076,-11.374,0.8627337025533172,-0.5074719333098713,-0.19851374912183506,79.08598031248125,-14.101938467412845,-15.350535106147793,68.46075193970931,-3.5953064270783344,24.5,0x0000,0x4056
357,12.432624383000075,adis16470,0.08750000000000001,0.9625,0.1625,0.858081875,9.438900625,1.593580625,16.031,13.024,7.726,0.27979373238721095,0.22731168177974145,0.1348441380090819,79.65939107741012,-13.478120568716173,-15.08163684484506,80.41705527646744,-5.122332272565627,24.6,0x0000,0x4056
358,12.467426436000096,adis16470,0.06375,0.96,0.13625,0.6251739374999999,9.414383999999998,1.3361560625,14.831000000000001,41.42400000000001,35.32600000000001,0.258849781363279,0.7229851893461312,0.616555011559517,80.21047233805722,-11.870982601934063,-13.852218849363341,81.92212714779724,-3.761632726041103,24.3,0x0000,0x4056
359,12.502227915000276,adis16470,0.07,0.98,0.15375,0.6864655000000001,9.610517,1.5077724375,7.231,28.224000000000004,14.026,0.12620475821170996,0.49260172808287966,0.24479988088472465,80.47455288591543,-10.75169893195113,-13.364093304913197,81.08367449326461,-4.036409323911262,24.3,0x0000,0x4056
360,12.536990228000377,adis16470,0.09375,0.99,0.1225,0.9193734375,9.7085835,1.201314625,-0.669,-4.276,-4.174,-0.011676252695842066,-0.07463027881527753,-0.07285004297824332,80.5011955064558,-10.78971345271579,-13.509190890500989,82.94622486960752,-5.368901605858165,24.3,0x0000,0x4056
361,12.571789207000165,adis16470,0.11875000000000001,1.0,0.1,1.1645396875,9.80665,0.980665,6.931,0.524,4.426,0.12096877045572699,0.009145525280450288,0.07724827269326903,80.81332749350143,-10.690826439264827,-13.355170693541037,84.28940686250036,-6.738860877127393,24.700000000000003,0x0000,0x4056
362,12.606613871000263,adis16470,0.04875,1.00125,0.16875,0.47807418749999997,9.8189083125,1.6548721875,8.531,3.124,2.426,0.14889403848763627,0.05452408583230286,0.042341687653382434,81.09687681358479,-10.4253682074846,-13.270685430343928,80.43331401028559,-2.748774763345242,24.3,0x0000,0x4056
363,12.641427849000138,adis16470,0.1275,0.995,0.1375,1.2503478749999999,9.757616749999999,1.348414375,0.23100000000000004,2.724,-6.974,0.004031710572106902,0.04754276882432554,-0.12171926203408455,81.12546192414702,-10.268606612508222,-13.51347811989215,82.1320729133923,-7.234119119712208,24.400000000000002,0x0000,0x4056
364,12.676273587000196,adis16470,0.1375,1.0025,0.15125,1.348414375,9.831166624999998,1.4832558125,0.43100000000000005,-12.276000000000002,-8.174000000000001,0.007522369076095561,-0.21425661897482393,-0.14266321305801652,81.14607746677797,-10.636914369390324,-13.798307026996552,81.42033231613821,-7.723458180974927,24.400000000000002,0x0000,0x4056
365,12.711101362000136,adis16470,0.09,0.9975,0.09375,0.8825985,9.782133375,0.9193734375,1.231,-9.476,-0.974,0.0214850030920502,-0.16538739991898269,-0.01699950691442477,81.25778818625862,-10.850266250531124,-13.832229387960679,84.63083018516926,-5.133085087306041,24.6,0x0000,0x4056
366,12.745911230000274,adis16470,0.1,0.9762500000000001,0.1325,0.980665,9.573742062500001,1.299381125,6.631,-1.3760000000000001,-2.3740000000000006,0.11573278269974399,-0.024015730507441976,-0.041434116442345396,81.50425581621414,-10.796116982179493,-13.914867530296732,82.27084846681119,-5.795796047412065,24.400000000000002,0x0000,0x4056
367,12.780766690000291,adis16470,0.1125,0.94875,0.15875,1.103248125,9.3040591875,1.5568056875,14.631000000000002,9.324,8.626,0.2553591228592904,0.16273449945595128,0.15055210127703086,81.9839620155014,-10.395111480588488,-13.614203530119223,80.50095757941176,-6.670507535031249,24.6,0x0000,0x4056
368,12.815629946000172,adis16470,0.1375,0.96125,0.11625,1.348414375,9.4266423125,1.1400230625,17.331,7.224,6.726,0.30248301266313726,0.12608258516407037,0.1173908454891386,82.59850054387469,-10.10204271302251,-13.379713270264027,83.10434903720318,-8.082429008103231,24.400000000000002,0x0000,0x4056
369,12.850476831000378,adis16470,0.09125,0.95125,0.14625,0.8948568124999999,9.3285758125,1.4342225624999998,21.531,-5.776000000000001,7.126,0.3757868412468991,-0.10081021759519249,0.12437216249711593,83.3070025777509,-10.205575037670878,-13.131394496022441,81.25949546227217,-5.416159259649339,24.6,0x0000,0x4056
370,12.88530625400017,adis16470,0.0625,1.00625,0.0925,0.612915625,9.8679415625,0.9071151249999999,15.431000000000001,-13.676000000000002,-3.0740000000000003,0.269321756875245,-0.23869122850274455,-0.05365142120630569,83.86252353760035,-10.53905080930931,-13.238460314468776,84.74781973813975,-3.5392938341234306,24.700000000000003,0x0000,0x4056
371,12.920151862000239,adis16470,0.135,1.00375,0.08125,1.32389775,9.843424937499998,0.7967903125,13.231000000000002,-10.976,-0.774,0.23092451333136976,-0.19156733869889764,-0.01350884841043611,84.34453773584201,-10.855793028250448,-13.265430771716936,85.37220002246156,-7.635387597407289,24.3,0x0000,0x4056
372,12.954995045000032,adis16470,0.06625,0.99625,0.05625,0.6496905625,9.769875062499999,0.5516240625,25.231,-12.376000000000001,3.326,0.4403640235706893,-0.21600194822681826,0.0580496509213314,85.25456145324061,-11.137242230160332,-13.149542285192256,86.7684121891438,-3.798499800761306,24.400000000000002,0x0000,0x4056
373,12.98980811599995,adis16470,0.075,1.0075,0.0825,0.73549875,9.880199875,0.809048625,17.531,-8.076,-0.274,0.30597367116712587,-0.14095279039106207,-0.004782202150464463,85.85394375373752,-11.274887257109402,-13.159081020888344,85.31873049663666,-4.243191954991775,24.3,0x0000,0x4056
374,13.024581558000136,adis16470,0.10250000000000001,0.9875,0.14375000000000002,1.005181625,9.684066875,1.4097059375,14.931000000000001,-7.476,-4.774000000000001,0.26059511061527335,-0.13048081487909607,-0.08332201849020932,86.28003612220242,-11.421447698544396,-13.325089437769016,81.71765058296869,-5.864562595428998,24.6,0x0000,0x4056
375,13.059502144000362,adis16470,0.14625,0.975,0.051250000000000004,1.4342225624999998,9.561483749999999,0.5025908125,2.6310000000000002,-6.476,-0.074,0.045919612619970816,-0.11302752235915278,-0.0012915436464758037,86.38429615772199,-11.585027208150397,-13.327673585775042,86.9910679415758,-8.519177477979836,24.5,0x0000,0x4056
