sample,time_s,sensor,accel_x_g,accel_y_g,accel_z_g,accel_x_mps2,accel_y_mps2,accel_z_mps2,gyro_x_dps,gyro_y_dps,gyro_z_dps,gyro_x_radps,gyro_y_radps,gyro_z_radps,roll_deg,pitch_deg,yaw_deg,accel_roll_deg,accel_pitch_deg,temp_c,diag_stat,prod_id
0,0.0005883539997739717,adis16470,-0.0275,0.09375,0.9925,-0.269682875,0.9193734375,9.733100125,9.171000000000001,0.5209999999999999,2.3470000000000004,0.16006414570039998,0.009093165402890456,0.04096287754430692,5.396059266774197,1.5801044978385672,0.0,5.396059266774197,1.5801044978385672,24.6,0x0000,0x4056
1,0.5006805960001657,adis16470,0.01875,0.02125,1.00125,0.1838746875,0.2083913125,9.8189083125,-10.129000000000001,0.12099999999999986,-0.7529999999999997,-0.17678439993450568,0.0021118483949131364,-0.013142329267517296,0.34821513869683723,1.5863529514848633,-0.37657810341895337,1.2158327659586539,-1.072587793513252,24.5,0x0000,0x4056
2,1.0007578019999528,adis16470,-0.02875,0.045,1.0,-0.2819411875,0.44129925,9.80665,-2.329,0.12099999999999986,1.1470000000000005,-0.04064871827894794,0.0021118483949131364,0.020018926520374968,-0.748569623240937,1.6468259862882209,0.19699320442416457,2.5765718302688305,1.6451360916511328,24.6,0x0000,0x4056
3,1.5008515810000063,adis16470,0.03,0.0825,0.9925,0.29419949999999995,0.809048625,9.733100125,-2.229,-0.3790000000000002,0.8470000000000005,-0.03890338902695361,-0.006614797865058513,0.014782938764391981,-1.7309826504972996,1.3936362710229964,0.6205739997540312,4.751697605113688,-1.7253882892859254,24.6,0x0000,0x4056
4,2.0009346940000796,adis16470,-0.04875,0.0275,0.995,-0.47807418749999997,0.269682875,9.757616749999999,-0.9289999999999998,0.32099999999999984,1.7470000000000006,-0.016214108751027318,0.005602506898901795,0.030490902032340946,-2.119985303970236,1.5791574228355707,1.4942184539430856,1.5831486707843039,2.803893277828228,24.400000000000002,0x0000,0x4056
5,2.5010496949998924,adis16470,-0.0575,0.043750000000000004,0.99375,-0.563882375,0.4290409375,9.7453584375,-4.429,0.22099999999999986,1.8470000000000004,-0.07730063257082886,0.003857177646907466,0.032236231284335275,-4.197895875247823,1.722056817545504,2.4179383854679557,2.520827907710173,3.3083376951580004,24.5,0x0000,0x4056
6,3.001135048999913,adis16470,-0.0275,0.025,1.00125,-0.269682875,0.24516625,9.8189083125,-4.329,0.12099999999999986,1.0470000000000006,-0.07555530331883452,0.0021118483949131364,0.01827359726838064,-6.206880237170891,1.7783707691411956,2.9415219151278,1.4303090419471012,1.5727813817109753,24.6,0x0000,0x4056
7,3.5012321240001256,adis16470,-0.0225,0.02625,0.99625,-0.220649625,0.25742456249999995,9.769875062499999,-2.129,0.4209999999999999,1.2470000000000006,-0.03715805977495928,0.007347836150896125,0.0217642557723693,-7.095976027966293,1.9750016426275439,3.5651473795389075,1.5093262718410019,1.2933388978798377,24.700000000000003,0x0000,0x4056
8,4.001324477999788,adis16470,-0.02375,0.0025,0.995,-0.2329079375,0.024516625,9.757616749999999,-2.329,0.020999999999999852,1.1470000000000005,-0.04064871827894794,0.0003665191429188066,0.020018926520374968,-8.092595115517343,1.9731404607657936,4.138751800124835,0.14395894207200274,1.3673488714381101,24.6,0x0000,0x4056
9,4.501423534999958,adis16470,-0.02625,0.04,1.00125,-0.25742456249999995,0.392266,9.8189083125,-0.8289999999999998,0.22099999999999986,1.8470000000000004,-0.01446877949903299,0.003857177646907466,0.032236231284335275,-8.291279509167767,2.072001263366544,5.062436777174798,2.2877533951107036,1.500596066453515,24.6,0x0000,0x4056
10,5.0015157039997575,adis16470,-0.0375,-0.02125,0.98875,-0.367749375,-0.2083913125,9.6963251875,-3.329,0.32099999999999984,1.8470000000000004,-0.058102010798891233,0.005602506898901795,0.032236231284335275,-9.781586173434187,2.231309927992145,5.986105644691463,-1.2311988956420303,2.171496423628914,24.3,0x0000,0x4056
11,5.501599095000074,adis16470,-0.04625,0.02625,0.99875,-0.45355756249999996,0.25742456249999995,9.7943916875,2.1710000000000003,0.4209999999999999,0.24700000000000044,0.0378910980607969,0.007347836150896125,0.004310963252426002,-8.491874018886174,2.4460172899081805,6.109626475683432,1.5055499746360614,2.6504382564525573,24.5,0x0000,0x4056
12,6.0016902819997995,adis16470,-0.0225,0.02,0.99375,-0.220649625,0.196133,9.7453584375,2.3710000000000004,0.22099999999999986,0.8470000000000005,0.041381756564785564,0.003857177646907466,0.014782938764391981,-7.1369725215350925,2.5313425304139403,6.533204730860585,1.1529669546579209,1.2967788130552345,24.5,0x0000,0x4056
13,6.5017746549997355,adis16470,-0.02375,0.0275,0.99375,-0.2329079375,0.269682875,9.7453584375,-1.629,0.4209999999999999,1.5470000000000006,-0.028431413514987628,0.007347836150896125,0.02700024352835229,-7.760872647941799,2.7144108616046725,7.306832991083518,1.5851390374151488,1.3685487601904365,24.6,0x0000,0x4056
14,7.001870120000149,adis16470,-0.025,-0.00125,0.99875,-0.24516625,-0.0122583125,9.7943916875,-2.029,-0.07900000000000018,1.1470000000000005,-0.035412730522964946,-0.0013788101090755234,0.020018926520374968,-8.601488434464251,2.6500830170006693,7.880442044402483,-0.0717093236505815,1.4338866744713905,24.200000000000003,0x0000,0x4056
15,7.501971973999844,adis16470,-0.03375,-0.01625,0.9975,-0.3309744375,-0.1593580625,9.782133375,-2.4290000000000003,0.4209999999999999,1.0470000000000006,-0.042394047530942267,0.007347836150896125,0.01827359726838064,-9.638576913088283,2.842164975571257,8.404048529537386,-0.9333073348720025,1.937582873087001,24.400000000000002,0x0000,0x4056
16,8.002067901999908,adis16470,-0.0225,-0.03625,0.9925,-0.220649625,-0.35549106249999995,9.733100125,1.5710000000000002,0.4209999999999999,1.0470000000000006,0.02741912254883092,0.007347836150896125,0.01827359726838064,-8.717702742862084,3.0176073556200786,8.92764875361232,-2.091737216548614,1.2978092669886312,24.6,0x0000,0x4056
17,8.50215503399977,adis16470,-0.0675,0.0275,0.9975,-0.661948875,0.269682875,9.782133375,0.8710000000000002,0.020999999999999852,1.2470000000000006,0.015201817784870614,0.0003665191429188066,0.0217642557723693,-8.08490078237615,3.044942806097046,9.5512572226604,1.5791828912958885,3.8697903729323673,24.6,0x0000,0x4056
18,9.002226740999959,adis16470,-0.01875,-0.00875,1.00125,-0.1838746875,-0.08580818750000001,9.8189083125,2.3710000000000004,0.32099999999999984,1.1470000000000005,0.041381756564785564,0.005602506898901795,0.020018926520374968,-6.771258460841055,3.1628125011088057,10.124840298723203,-0.5006994343924603,1.0727883209467342,24.700000000000003,0x0000,0x4056
19,9.502310817999842,adis16470,-0.025,0.00875,0.99875,-0.24516625,0.08580818750000001,9.7943916875,2.2710000000000004,0.22099999999999986,1.0470000000000006,0.03963642731279123,0.003857177646907466,0.01827359726838064,-5.512817160108901,3.236541112261644,10.648428307449292,0.5019526855752704,1.433832794667789,24.6,0x0000,0x4056
20,10.002411560999917,adis16470,-0.02,0.0075,0.995,-0.196133,0.07354987499999999,9.757616749999999,-0.4289999999999998,0.12099999999999986,1.0470000000000006,-0.00748746249105567,0.0021118483949131364,0.01827359726838064,-5.604176465443312,3.2541421532344903,11.172035491980415,0.4318695560060455,1.1514861913862773,24.400000000000002,0x0000,0x4056
21,10.502485638000053,adis16470,-0.02875,0.01,0.99375,-0.2819411875,0.0980665,9.7453584375,-0.22899999999999981,0.4209999999999999,0.9470000000000005,-0.003996803987067012,0.007347836150896125,0.01652826801638631,-5.592787456105719,3.4285188957898045,11.645600294243263,0.5765418432435272,1.6570676591625242,24.6,0x0000,0x4056
22,11.002563585999724,adis16470,-0.03,-0.0975,0.99625,-0.29419949999999995,-0.9561483749999999,9.769875062499999,-17.229,0.22099999999999986,1.3470000000000004,-0.300702776826103,0.003857177646907466,0.023509585024363625,-14.036245688337086,3.5025878727665067,12.319205015411276,-5.589565950242295,1.7166258548488365,24.5,0x0000,0x4056
23,11.50264007099986,adis16470,-0.0325,-0.21,0.975,-0.318716125,-2.0593964999999996,9.561483749999999,-17.329,0.12099999999999986,0.047000000000000486,-0.30244810607809736,0.0021118483949131364,0.0008203047484373433,-22.49113667745338,3.5291629069958335,12.34270863281328,-12.15494169722223,1.8663832528185302,24.400000000000002,0x0000,0x4056
24,12.002717888999996,adis16470,-0.043750000000000004,-0.42875,0.8325,-0.4290409375,-4.2046011875,8.164036124999999,-25.629,0.020999999999999852,0.047000000000000486,-0.44731043399362674,0.0003665191429188066,0.0008203047484373433,-35.14644560281126,3.522370058499839,12.366212260696278,-27.249147378219977,2.674941054715151,24.700000000000003,0x0000,0x4056
25,12.502797058999931,adis16470,-0.00125,-0.00125,-0.00125,-0.0122583125,-0.0122583125,-0.0122583125,-0.1289999999999998,0.12099999999999986,0.8470000000000005,-0.002251474735072682,0.0021118483949131364,0.014782938764391981,-37.20673673457122,4.216509871928797,12.78977955315243,-135.0,35.264389682754654,-0.1,0x0000,0x4056
26,13.002872118000141,adis16470,-0.00125,-0.00125,-0.00125,-0.0122583125,-0.0122583125,-0.0122583125,-0.1289999999999998,0.12099999999999986,0.8470000000000005,-0.002251474735072682,0.0021118483949131364,0.014782938764391981,-39.225821420951036,4.896766304964072,13.21334267328641,-135.0,35.264389682754654,-0.1,0xFFFF,0xFFFF
27,13.502950473000055,adis16470,-0.00125,-0.00125,-0.00125,-0.0122583125,-0.0122583125,-0.0122583125,-0.1289999999999998,0.12099999999999986,0.8470000000000005,-0.002251474735072682,0.0021118483949131364,0.014782938764391981,-41.20452499652586,5.563418156111009,13.636909698937302,-135.0,35.264389682754654,-0.1,0xFFFF,0xFFFF
28,14.00302540299981,adis16470,-0.00125,-0.00125,-0.00125,-0.0122583125,-0.0122583125,-0.0122583125,-0.1289999999999998,0.12099999999999986,0.8470000000000005,-0.002251474735072682,0.0021118483949131364,0.014782938764391981,-43.14365397152151,6.216736473977725,14.060473179893318,-135.0,35.264389682754654,-0.1,0xFFFF,0xFFFF
29,14.503097850999893,adis16470,-0.00125,-0.00125,-0.00125,-0.0122583125,-0.0122583125,-0.0122583125,-0.1289999999999998,0.12099999999999986,0.8470000000000005,-0.002251474735072682,0.0021118483949131364,0.014782938764391981,-45.044000064999835,6.856988142199462,14.484034637366165,-135.0,35.264389682754654,-0.1,0xFFFF,0xFFFF
30,15.003169280999828,adis16470,-0.00125,-0.00125,-0.00125,-0.0122583125,-0.0122583125,-0.0122583125,-0.1289999999999998,0.12099999999999986,0.8470000000000005,-0.002251474735072682,0.0021118483949131364,0.014782938764391981,-46.90633901196033,7.484434566340177,14.90759458972052,-135.0,35.264389682754654,-0.1,0xFFFF,0xFFFF
31,15.503246488000059,adis16470,-0.00125,-0.00125,-0.00125,-0.0122583125,-0.0122583125,-0.0122583125,-0.1289999999999998,0.12099999999999986,0.8470000000000005,-0.002251474735072682,0.0021118483949131364,0.014782938764391981,-48.73143207882774,8.099332905101804,15.331160564244358,-135.0,35.264389682754654,-0.1,0xFFFF,0xFFFF
32,16.00333934299988,adis16470,-0.00125,-0.00125,-0.00125,-0.0122583125,-0.0122583125,-0.0122583125,-0.1289999999999998,0.12099999999999986,0.8470000000000005,-0.002251474735072682,0.0021118483949131364,0.014782938764391981,-50.52002571452945,8.701935556551536,15.75474282064918,-135.0,35.264389682754654,-0.1,0xFFFF,0xFFFF
33,16.50341040300009,adis16470,-0.00125,-0.00125,-0.00125,-0.0122583125,-0.0122583125,-0.0122583125,-0.1289999999999998,0.12099999999999986,0.8470000000000005,-0.002251474735072682,0.0021118483949131364,0.014782938764391981,-52.27284363814181,9.292482553697743,16.178299353664492,-135.0,35.264389682754654,-0.1,0xFFFF,0xFFFF
34,17.00348177800015,adis16470,-0.00125,-0.00125,-0.00125,-0.0122583125,-0.0122583125,-0.0122583125,-0.1289999999999998,0.12099999999999986,0.8470000000000005,-0.002251474735072682,0.0021118483949131364,0.014782938764391981,-53.99060577912496,9.871219151032877,16.601859744764447,-135.0,35.264389682754654,-0.1,0xFFFF,0xFFFF
35,17.503553281999757,adis16470,-0.00125,-0.00125,-0.00125,-0.0122583125,-0.0122583125,-0.0122583125,-0.1289999999999998,0.12099999999999986,0.8470000000000005,-0.002251474735072682,0.0021118483949131364,0.014782938764391981,-55.6740127148352,10.43838105163957,17.025420387423438,-135.0,35.264389682754654,-0.1,0xFFFF,0xFFFF
36,18.003625563999776,adis16470,-0.00125,-0.00125,-0.00125,-0.0122583125,-0.0122583125,-0.0122583125,-0.1289999999999998,0.12099999999999986,0.8470000000000005,-0.002251474735072682,0.0021118483949131364,0.014782938764391981,-57.32375161473712,10.994199810758255,17.448981719540456,-135.0,35.264389682754654,-0.1,0xFFFF,0xFFFF
37,18.50370188299985,adis16470,-0.00125,-0.00125,-0.00125,-0.0122583125,-0.0122583125,-0.0122583125,-0.1289999999999998,0.12099999999999986,0.8470000000000005,-0.002251474735072682,0.0021118483949131364,0.014782938764391981,-58.940496209704634,11.538902638420925,17.872546221131465,-135.0,35.264389682754654,-0.1,0xFFFF,0xFFFF
38,19.0037760539999,adis16470,-0.00125,-0.00125,-0.00125,-0.0122583125,-0.0122583125,-0.0122583125,-0.1289999999999998,0.12099999999999986,0.8470000000000005,-0.002251474735072682,0.0021118483949131364,0.014782938764391981,-60.524905669161456,12.072711181026673,18.2961090905534,-135.0,35.264389682754654,-0.1,0xFFFF,0xFFFF
39,19.503848743000162,adis16470,-0.00125,-0.00125,-0.00125,-0.0122583125,-0.0122583125,-0.0122583125,-0.1289999999999998,0.12099999999999986,0.8470000000000005,-0.002251474735072682,0.0021118483949131364,0.014782938764391981,-62.0776267616826,12.595843386056806,18.71967076909322,-135.0,35.264389682754654,-0.1,0xFFFF,0xFFFF
40,20.00392437699975,adis16470,-0.00125,-0.00125,-0.00125,-0.0122583125,-0.0122583125,-0.0122583125,-0.1289999999999998,0.12099999999999986,0.8470000000000005,-0.002251474735072682,0.0021118483949131364,0.014782938764391981,-63.59929377394023,13.108513267389561,19.143234736227488,-135.0,35.264389682754654,-0.1,0xFFFF,0xFFFF
41,20.503999529999874,adis16470,-0.00125,-0.00125,-0.00125,-0.0122583125,-0.0122583125,-0.0122583125,-0.1289999999999998,0.12099999999999986,0.8470000000000005,-0.002251474735072682,0.0021118483949131364,0.014782938764391981,-65.09052741106075,13.610929718367549,19.566798469589532,-135.0,35.264389682754654,-0.1,0xFFFF,0xFFFF
42,21.004075478999766,adis16470,-0.00125,-0.00125,-0.00125,-0.0122583125,-0.0122583125,-0.0122583125,-0.1289999999999998,0.12099999999999986,0.8470000000000005,-0.002251474735072682,0.0021118483949131364,0.014782938764391981,-66.55193651576502,14.103297971949733,19.99036314312126,-135.0,35.264389682754654,-0.1,0xFFFF,0xFFFF
43,21.504148260999955,adis16470,-0.00125,-0.00125,-0.00125,-0.0122583125,-0.0122583125,-0.0122583125,12.471,0.22099999999999986,0.8470000000000005,0.21766001101621285,0.003857177646907466,0.014782938764391981,-61.8092200832088,14.634825537237537,20.413924664119207,-135.0,35.264389682754654,-0.1,0x0000,0x4056
44,22.004224302999773,adis16470,-0.00125,-0.00125,-0.00125,-0.0122583125,-0.0122583125,-0.0122583125,-0.1289999999999998,0.12099999999999986,0.8470000000000005,-0.002251474735072682,0.0021118483949131364,0.014782938764391981,-63.33625532524149,15.10671586578602,20.837489275820207,-135.0,35.264389682754654,-0.1,0xFFFF,0xFFFF
45,22.504299677999825,adis16470,0.0,0.0,0.0,0.0,0.0,0.0,-0.028999999999999807,0.22099999999999986,0.9470000000000005,-0.0005061454830783522,0.003857177646907466,0.01652826801638631,-62.08374235143031,14.912887801066743,21.311060340594576,0.0,-0.0,0.0,0x0000,0x0000
46,23.004372256999886,adis16470,-0.00125,-0.00125,-0.00125,-0.0122583125,-0.0122583125,-0.0122583125,-0.1289999999999998,0.12099999999999986,0.8470000000000005,-0.002251474735072682,0.0021118483949131364,0.014782938764391981,-63.60528664937165,15.379216416540528,21.734621610880478,-135.0,35.264389682754654,-0.1,0xFFFF,0xFFFF
47,23.504445299000054,adis16470,-0.00125,-0.00125,-0.00125,-0.0122583125,-0.0122583125,-0.0122583125,-0.1289999999999998,0.22099999999999986,0.9470000000000005,-0.002251474735072682,0.003857177646907466,0.01652826801638631,-65.09640012696613,15.885225661233838,22.208190606459336,-135.0,35.264389682754654,-0.1,0xFFFF,0xFFFF
48,24.00452130399981,adis16470,-0.00125,-0.00125,-0.00125,-0.0122583125,-0.0122583125,-0.0122583125,-0.1289999999999998,0.12099999999999986,0.8470000000000005,-0.002251474735072682,0.0021118483949131364,0.014782938764391981,-66.55769169075464,16.332107914731445,22.631754699796424,-135.0,35.264389682754654,-0.1,0xFFFF,0xFFFF
49,24.504595808999966,adis16470,-0.00125,-0.00125,-0.00125,-0.0122583125,-0.0122583125,-0.0122583125,-0.1289999999999998,0.12099999999999986,0.8470000000000005,-0.002251474735072682,0.0021118483949131364,0.014782938764391981,-67.98975728294117,16.77005239153529,23.05531785296344,-135.0,35.264389682754654,-0.1,0xFFFF,0xFFFF
50,25.004669462000038,adis16470,0.0,0.0,0.0,0.0,0.0,0.0,-0.028999999999999807,0.22099999999999986,0.9470000000000005,-0.0005061454830783522,0.003857177646907466,0.01652826801638631,-66.64417423680985,16.542957343552082,23.52888781258844,0.0,-0.0,0.0,0x0000,0x0000
51,25.50474357899975,adis16470,0.0,0.0,0.0,0.0,0.0,0.0,-0.1289999999999998,0.22099999999999986,0.9470000000000005,-0.002251474735072682,0.003857177646907466,0.01652826801638631,-65.3745100937531,16.320404200643516,24.002457790206247,0.0,-0.0,0.0,0xFFFF,0xFFFF
52,26.00481634300013,adis16470,0.0,0.0,0.0,0.0,0.0,0.0,-0.1289999999999998,0.22099999999999986,0.9470000000000005,-0.002251474735072682,0.003857177646907466,0.01652826801638631,-64.13023907907228,16.102301855932403,24.476026610590235,0.0,-0.0,0.0,0xFFFF,0xFFFF
53,26.504889551999895,adis16470,0.0,0.96875,-0.13,0.0,9.5001921875,-1.2748645,-6.929,0.22099999999999986,1.0470000000000006,-0.1209338638706871,0.003857177646907466,0.01827359726838064,-64.29048278503095,15.888561758668637,24.999603667696444,97.64306368962008,-0.0,24.400000000000002,0x0000,0x4056
54,27.004963779999798,adis16470,0.0225,0.98875,-0.06875,0.220649625,9.6963251875,-0.6742071875,-12.729000000000001,-0.17900000000000016,0.8470000000000005,-0.22216296048635822,-0.0031241393610698526,0.014782938764391981,-67.36325926611214,15.457058314270993,25.423166554058202,93.97750195009654,-1.3004592495500022,24.6,0x0000,0x4056
55,27.50503874800006,adis16470,-0.00125,1.05375,0.0175,-0.0122583125,10.3337574375,0.17161637500000002,-14.129000000000001,-0.17900000000000016,0.5470000000000005,-0.24659757001427884,-0.0031241393610698526,0.009546951008408992,-71.15927049809693,15.06155314583579,25.696707541862306,89.048556131951,0.06795712108446911,24.3,0x0000,0x4056
56,28.005113493999943,adis16470,-0.00125,0.92125,0.23875000000000002,-0.0122583125,9.0343763125,2.3413376875,-17.429000000000002,-0.3790000000000002,0.7470000000000006,-0.30419343533009174,-0.006614797865058513,0.01303760951239765,-76.76815169689131,14.576089462462464,26.070263321846465,75.47094101847512,0.07525571088542532,24.3,0x0000,0x4056
57,28.505190500000026,adis16470,-0.00375,0.9087500000000001,0.3275,-0.03677493749999999,8.9117931875,3.211677875,-13.129000000000001,0.22099999999999986,0.047000000000000486,-0.22914427749433555,0.003857177646907466,0.0008203047484373433,-80.2633614494076,14.397322997474232,26.09376695504045,70.18159067703141,0.22242910969636898,24.6,0x0000,0x4056
58,29.005264560999876,adis16470,-0.0125,0.905,0.40750000000000003,-0.122583125,8.87501825,3.996209875,-15.129000000000001,0.4209999999999999,0.7470000000000006,-0.26405086253422216,0.007347836150896125,0.01303760951239765,-84.75722314624316,14.330128410101224,26.467322416802578,65.75909382790424,0.7215620080863931,24.700000000000003,0x0000,0x4056
59,29.505342362999727,adis16470,-0.0275,0.88,0.525,-0.269682875,8.629852,5.14849125,-18.229,0.5209999999999999,0.8470000000000005,-0.31815606934604634,0.009093165402890456,0.014782938764391981,-90.81207494911915,14.329600988977909,26.890888221079674,59.1800819427709,1.5372739803934692,24.400000000000002,0x0000,0x4056
60,30.005418998000096,adis16470,-0.10250000000000001,0.7075,0.6425,-1.005181625,6.938204874999999,6.300772625,-28.629,0.6209999999999999,1.4470000000000005,-0.49967031155345665,0.010838494654884784,0.025254914276357957,-102.0710577310267,14.469778351458583,27.614498870275472,47.756556871536525,6.121642268243813,24.3,0x0000,0x4056
61,30.50549341099986,adis16470,-0.0375,0.5387500000000001,0.8075,-0.367749375,5.283332687500001,7.9188698749999995,-17.129,0.6209999999999999,-0.35299999999999954,-0.29895744757410875,0.010838494654884784,-0.006161012259539975,-107.7498823116644,14.528963723645898,27.437972661084416,33.710530303507305,2.2122876988566063,24.400000000000002,0x0000,0x4056
62,31.005569398999796,adis16470,-0.055,0.44625000000000004,0.9,-0.53936575,4.3762175625,8.825985,-26.229000000000003,0.821,0.7470000000000006,-0.45778240950559274,0.014329153158873445,0.01303760951239765,-117.92157482702302,14.703412389836672,27.81152947865147,26.37374711497853,3.1338371752126486,24.8,0x0000,0x4056
63,31.505643255999985,adis16470,-0.025,0.315,0.97375,-0.24516625,3.0890947499999997,9.549225437499999,-24.929000000000002,-1.6790000000000003,1.5470000000000006,-0.4350931292296665,-0.029304078140984798,0.02700024352835229,-127.42164165903968,13.614498803252431,28.585143938087025,17.925961467541082,1.3993201273490168,24.400000000000002,0x0000,0x4056
64,32.005717873999856,adis16470,-0.0075,0.1125,0.98875,-0.07354987499999999,1.103248125,9.6963251875,-11.929,0.5209999999999999,-0.4529999999999996,-0.20820032647040357,0.009093165402890456,-0.007906341511534307,-130.589466911178,13.606173182184666,28.358610145192987,6.491199831651551,0.43181333751999795,24.400000000000002,0x0000,0x4056
65,32.50579126899993,adis16470,-0.00625,-0.0425,0.995,-0.0612915625,-0.416782625,9.757616749999999,-18.129,0.5209999999999999,1.3470000000000004,-0.316410740094052,0.009093165402890456,0.023509585024363625,-136.91111255012027,13.59656863545765,29.03220935713107,-2.445820463302709,0.3595655328663149,24.400000000000002,0x0000,0x4056
66,33.00586646000011,adis16470,-0.02625,-0.0225,0.9975,-0.25742456249999995,-0.220649625,9.782133375,1.2710000000000001,0.22099999999999986,0.9470000000000005,0.02218313479284793,0.003857177646907466,0.01652826801638631,-133.57585014111723,13.463084571619422,29.50578044084481,-1.2921668862499316,1.5070525971511897,24.400000000000002,0x0000,0x4056
67,33.50594694699976,adis16470,-0.03875,-0.02875,0.9975,-0.38000768749999997,-0.2819411875,9.782133375,-6.329000000000001,0.4209999999999999,0.9470000000000005,-0.11046188835872113,0.007347836150896125,0.01652826801638631,-134.0390639612952,13.44462098920108,29.97935713648106,-1.6509250703867184,2.223734749244983,24.400000000000002,0x0000,0x4056
68,34.00602667600015,adis16470,-0.01625,-0.0425,0.9975,-0.1593580625,-0.416782625,9.782133375,-7.329000000000001,0.32099999999999984,1.2470000000000006,-0.12791518087866444,0.005602506898901795,0.0217642557723693,-134.99885515941327,13.351692699930478,30.60295584151919,-2.4396980035280196,0.9324615124033223,24.3,0x0000,0x4056
69,34.5061036080001,adis16470,-0.07625,-0.18125,0.985,-0.7477570625,-1.7774553124999999,9.659550249999999,-16.029,0.9209999999999999,1.7470000000000006,-0.2797588258021711,0.016074482410867775,0.030490902032340946,-140.3628291904774,13.62309257353801,31.476590823473522,-10.426371159355707,4.353699488139392,24.400000000000002,0x0000,0x4056
70,35.00618020699994,adis16470,-0.00125,-0.00125,-0.00125,-0.0122583125,-0.0122583125,-0.0122583125,-0.1289999999999998,0.12099999999999986,0.8470000000000005,-0.002251474735072682,0.0021118483949131364,0.014782938764391981,-140.31879223886048,14.11521755056971,31.900155358097567,-135.0,35.264389682754654,-0.1,0xFFFF,0xFFFF
71,35.50620889999982,adis16470,-0.02,-0.0225,0.97875,-0.196133,-0.220649625,9.5982586875,45.971000000000004,-1.1790000000000003,0.4470000000000005,0.8023453104343133,-0.02057743188101315,0.007801621756414662,-115.01166116483198,13.278576228833767,32.1236682911486,-1.3169124057932626,1.170322952119495,24.400000000000002,0x0000,0x4056
72,36.006281425,adis16470,0.125,0.3025,0.92,1.22583125,2.966511625,9.022118,46.17100000000001,1.2209999999999999,2.5470000000000006,0.805835968938302,0.02131047016685076,0.044453536048295585,-89.72034628396956,13.464289377630411,33.397352352651076,18.20108979704874,-7.3545899338592315,24.6,0x0000,0x4056
73,36.506359542000155,adis16470,-0.0125,0.4825,0.865,-0.122583125,4.731708625,8.482752249999999,13.171000000000001,0.020999999999999852,1.2470000000000006,0.22987731578017317,0.0003665191429188066,0.0217642557723693,-80.88808221793018,13.21975619275017,34.02094978824302,29.152929684483304,0.7230497316744383,24.400000000000002,0x0000,0x4056
74,37.00643280799977,adis16470,0.0525,0.39375,0.93625,0.5148491249999999,3.8613684374999995,9.1814760625,-32.129,1.621,-0.25299999999999967,-0.5607568353732582,0.02829178717482808,-0.004415683007545648,-94.55963857554586,13.69058799821205,33.89443128938907,22.809711103877454,-2.9589612237633474,24.3,0x0000,0x4056
75,37.50650870399977,adis16470,-0.00375,-0.0325,0.99375,-0.03677493749999999,-0.318716125,9.7453584375,-37.729,1.821,1.2470000000000006,-0.6584952734849406,0.03178244567881674,0.0217642557723693,-111.19592241046078,14.313523427269013,34.51802583942347,-1.8731565970261528,0.2160939297931316,24.400000000000002,0x0000,0x4056
76,38.00658572900011,adis16470,-0.03375,-0.1975,0.935,-0.3309744375,-1.936813375,9.16921775,-21.429000000000002,-0.5790000000000002,0.7470000000000006,-0.3740066054098649,-0.010105456369047172,0.01303760951239765,-119.7123766525135,13.783952702417832,34.891583377098385,-11.927256645694717,2.0226724609815414,24.400000000000002,0x0000,0x4056
77,38.506664827999884,adis16470,-0.00125,-0.00125,-0.00125,-0.0122583125,-0.0122583125,-0.0122583125,-0.1289999999999998,0.12099999999999986,0.8470000000000005,-0.002251474735072682,0.0021118483949131364,0.014782938764391981,-120.08134915898111,14.2728608589367,35.31515064075646,-135.0,35.264389682754654,-0.1,0xFFFF,0xFFFF
78,39.006742261,adis16470,-0.43375,-0.91,2.12875,-4.2536344375,-8.9240515,20.8759061875,-0.028999999999999807,1.321,-15.853,-0.0005061454830783522,0.023055799418845092,-0.27668704631866103,-118.15685003887205,14.847028599841007,27.387425742864682,-23.145783358542484,10.611746553263467,24.3,0x0000,0x0000
79,39.506819175000146,adis16470,-0.00875,0.18,0.97375,-0.08580818750000001,1.765197,9.549225437499999,23.271,0.020999999999999852,0.9470000000000005,0.4061555702316004,0.0003665191429188066,0.01652826801638631,-104.17969634291433,14.570504873770972,27.860999071915792,10.473039535075692,0.5062626177821671,24.3,0x0000,0x4056
80,40.006893237999975,adis16470,-0.0275,0.3775,0.93625,-0.269682875,3.702010375,9.1814760625,16.771,0.4209999999999999,1.1470000000000005,0.292709168851969,0.007347836150896125,0.020018926520374968,-93.43791362272924,14.51662383153286,28.434583426884153,21.959502751305134,1.560435622682797,24.6,0x0000,0x4056
81,40.50696517100005,adis16470,-0.025,0.4025,0.91,-0.24516625,3.947176625,8.9240515,4.171,0.4209999999999999,1.1470000000000005,0.07279768310068349,0.007347836150896125,0.020018926520374968,-89.04786925338504,14.461395499712856,29.00816553029081,23.860175191342343,1.439230596089854,24.400000000000002,0x0000,0x4056
82,41.00703786299982,adis16470,-0.015,0.46375,0.87125,-0.14709974999999997,4.5478339375,8.5440438125,10.171000000000001,-0.07900000000000018,1.4470000000000005,0.17751743822034327,-0.0013788101090755234,0.025254914276357957,-81.72188533542594,14.150865995383647,29.731770903725128,28.025533688921634,0.870702177215309,24.400000000000002,0x0000,0x4056
83,41.507111647999864,adis16470,-0.04125,0.585,0.83125,-0.4045243125,5.736890249999999,8.1517778125,10.171000000000001,-0.17900000000000016,1.5470000000000006,0.17751743822034327,-0.0031241393610698526,0.02700024352835229,-74.4001952577023,13.826603552398003,30.505385106358585,35.136327216392914,2.3238913388603515,24.400000000000002,0x0000,0x4056
84,42.00718824800015,adis16470,-0.015,0.63875,0.77625,-0.14709974999999997,6.2639976875,7.6124120625,0.0710000000000002,0.12099999999999986,0.8470000000000005,0.0012391837689159776,0.0021118483949131364,0.014782938764391981,-72.08839972092186,13.626467955582855,30.928950111914656,39.44981457502737,0.8548686727481724,24.400000000000002,0x0000,0x4056
85,42.507263106999744,adis16470,-0.01875,0.655,0.76625,-0.1838746875,6.42335575,7.514345562499999,5.571000000000001,0.6209999999999999,1.4470000000000005,0.09723229262860411,0.010838494654884784,0.025254914276357957,-67.10594847715542,13.67958603034061,31.652558406842005,40.52423244599464,1.0655943566743011,24.400000000000002,0x0000,0x4056
86,43.00733957700004,adis16470,-0.025,0.56375,0.795,-0.24516625,5.528498937499999,7.79628675,-25.229000000000003,-0.17900000000000016,-0.6529999999999996,-0.44032911698564947,-0.0031241393610698526,-0.011397000015522964,-77.42109662946133,13.3476591235392,31.326008725949094,35.341196837278076,1.4694079967199032,24.400000000000002,0x0000,0x4056
87,43.507418288999816,adis16470,0.01125,-0.6675,1.4112500000000001,0.1103248125,-6.545938874999999,13.8396348125,-58.429,0.12099999999999986,-11.153,-1.019778428647767,0.0021118483949131364,-0.19465657147492757,-105.013698799062,13.131747758693574,25.74862342311499,-25.31344422852924,-0.41287975090411955,24.400000000000002,0x0000,0x4056
88,44.00749494399997,adis16470,0.03875,0.0525,1.00875,0.38000768749999997,0.5148491249999999,9.892458187499999,-10.329,0.32099999999999984,1.1470000000000005,-0.1802750584384943,0.005602506898901795,0.020018926520374968,-107.91582147473353,12.982488761599736,26.32221085777812,2.9792485151283796,-2.196901101941188,24.400000000000002,0x0000,0x4056
89,44.50756817399997,adis16470,-0.01375,-0.12125,0.925,-0.1348414375,-1.1890563125,9.07115125,-30.929000000000002,0.5209999999999999,1.8470000000000004,-0.5398128843493262,0.009093165402890456,0.032236231284335275,-121.06430726717096,12.995054826950257,27.24584710542671,-7.467815659337069,0.8444088313884818,24.3,0x0000,0x4056
90,45.0076461069998,adis16470,-0.00125,-0.00125,-0.00125,-0.0122583125,-0.0122583125,-0.0122583125,-0.1289999999999998,0.12099999999999986,0.8470000000000005,-0.002251474735072682,0.0021118483949131364,0.014782938764391981,-121.40624092038894,13.499740714965013,27.669412754702904,-135.0,35.264389682754654,-0.1,0xFFFF,0xFFFF
91,45.50772217099984,adis16470,-0.00125,-0.00125,-0.00125,-0.0122583125,-0.0122583125,-0.0122583125,-0.1289999999999998,0.12099999999999986,0.8470000000000005,-0.002251474735072682,0.0021118483949131364,0.014782938764391981,-121.74133572494513,13.994332720511817,28.09297722749583,-135.0,35.264389682754654,-0.1,0xFFFF,0xFFFF
92,46.007798270999956,adis16470,-0.00125,-0.00125,-0.00125,-0.0122583125,-0.0122583125,-0.0122583125,-0.1289999999999998,0.12099999999999986,0.8470000000000005,-0.002251474735072682,0.0021118483949131364,0.014782938764391981,-122.06972857715333,14.479032833179604,28.51654132337389,-135.0,35.264389682754654,-0.1,0xFFFF,0xFFFF
93,46.507874464,adis16470,-0.00125,-0.00125,-0.00125,-0.0122583125,-0.0122583125,-0.0122583125,-0.1289999999999998,0.12099999999999986,0.8470000000000005,-0.002251474735072682,0.0021118483949131364,0.014782938764391981,-122.39155365196191,14.9540390182994,28.9401059528617,-135.0,35.264389682754654,-0.1,0xFFFF,0xFFFF
94,47.007948064000175,adis16470,-0.00125,-0.00125,-0.00125,-0.0122583125,-0.0122583125,-0.0122583125,-0.1289999999999998,0.12099999999999986,0.8470000000000005,-0.002251474735072682,0.0021118483949131364,0.014782938764391981,-122.70694191857943,15.41954479204174,29.363668527527672,-135.0,35.264389682754654,-0.1,0xFFFF,0xFFFF
95,47.50802486900011,adis16470,-0.00125,-0.00125,-0.00125,-0.0122583125,-0.0122583125,-0.0122583125,-0.1289999999999998,0.12099999999999986,0.8470000000000005,-0.002251474735072682,0.0021118483949131364,0.014782938764391981,-123.0160228342694,15.875740839014517,29.78723387865994,-135.0,35.264389682754654,-0.1,0xFFFF,0xFFFF
96,48.00810052499992,adis16470,-0.02125,0.0075,0.9975,-0.2083913125,0.07354987499999999,9.782133375,8.371,0.22099999999999986,0.9470000000000005,0.14610151168444532,0.003857177646907466,0.01652826801638631,-116.44467704145876,15.690939733909302,30.26080540272876,0.43078721700862843,1.220367701872881,24.400000000000002,0x0000,0x4056
97,48.508174143999895,adis16470,-0.03875,0.00625,0.9975,-0.38000768749999997,0.0612915625,9.782133375,1.471,0.4209999999999999,1.2470000000000006,0.02567379329683659,0.007347836150896125,0.0217642557723693,-113.38770749132387,15.627933601161994,30.88439725176081,0.3589914144593881,2.224613646919092,24.400000000000002,0x0000,0x4056
98,49.008250484999735,adis16470,-0.01625,0.0,0.99875,-0.1593580625,0.0,9.7943916875,0.8710000000000002,0.32099999999999984,0.8470000000000005,0.015201817784870614,0.005602506898901795,0.014782938764391981,-110.69309822529353,15.491331716124938,31.30796186600278,0.0,0.9321394468156831,24.400000000000002,0x0000,0x4056
99,49.50832497500005,adis16470,-0.02625,-0.0125,1.00125,-0.25742456249999995,-0.122583125,9.8189083125,1.971,0.32099999999999984,1.0470000000000006,0.034400439556808236,0.005602506898901795,0.01827359726838064,-107.5276078046837,15.36885200834719,31.83153979840078,-0.715265956088158,1.5016755548515845,24.3,0x0000,0x4056
