sample,time_s,sensor,accel_x_g,accel_y_g,accel_z_g,accel_x_mps2,accel_y_mps2,accel_z_mps2,gyro_x_dps,gyro_y_dps,gyro_z_dps,gyro_x_radps,gyro_y_radps,gyro_z_radps,roll_deg,pitch_deg,yaw_deg,accel_roll_deg,accel_pitch_deg,temp_c,diag_stat,prod_id
0,0.0006706840001697856,adis16470,-0.02375,-0.043750000000000004,0.99875,-0.2329079375,-0.4290409375,9.7943916875,-0.05199999999999999,-0.088,0.055999999999999994,-0.0009075712110370513,-0.00153588974175501,0.0009773843811168245,-2.508224150812405,1.360916547399347,0.0,-2.508224150812405,1.360916547399347,24.3,0x0000,0x4056
1,0.05073039900003096,adis16470,-0.02625,-0.0425,0.99875,-0.25742456249999995,-0.416782625,9.7943916875,-0.05199999999999999,0.01200000000000001,0.256,-0.0009075712110370513,0.00020943951023931972,0.004468042885105484,-2.509343639932909,1.3643706972861,0.012815106815949549,-2.436648246810131,1.5041893432691158,24.3,0x0000,0x4056
2,0.10078715100007685,adis16470,-0.0225,-0.045,0.995,-0.220649625,-0.44129925,9.757616749999999,-0.05199999999999999,0.01200000000000001,0.055999999999999994,-0.0009075712110370513,0.00020943951023931972,0.0009773843811168245,-2.5134975970947564,1.3635537296939897,0.015618176063957436,-2.589501847240921,1.294090090576506,24.200000000000003,0x0000,0x4056
3,0.15084316200000103,adis16470,-0.02375,-0.0425,0.995,-0.2329079375,-0.416782625,9.757616749999999,0.048000000000000015,0.11200000000000002,-0.04400000000000001,0.0008377580409572784,0.0019547687622336494,-0.0007679448708775052,-2.5097894266234,1.369098947207918,0.013415718091961935,-2.445820463302709,1.3661080292469643,24.3,0x0000,0x4056
4,0.20090524700003698,adis16470,-0.0275,-0.043750000000000004,0.99875,-0.269682875,-0.4290409375,9.7943916875,0.14800000000000002,0.01200000000000001,-0.24400000000000002,0.0025830872929516083,0.00020943951023931972,-0.004258603374866165,-2.502497108176522,1.3738196422408104,0.0012005556879312266,-2.508224150812405,1.5756971599444665,24.3,0x0000,0x4056
5,0.2509611110001515,adis16470,-0.025,-0.04,0.99625,-0.24516625,-0.392266,9.769875062499999,0.048000000000000015,0.01200000000000001,-0.14400000000000002,0.0008377580409572784,0.00020943951023931972,-0.002513274122871835,-2.496077000242483,1.3756584599683073,-0.006007477928068513,-2.299222927202569,1.4363277246836461,23.900000000000002,0x0000,0x4056
6,0.3010191770001711,adis16470,-0.0225,-0.043750000000000004,1.0,-0.220649625,-0.4290409375,9.80665,0.048000000000000015,-0.088,0.256,0.0008377580409572784,-0.00153588974175501,0.004468042885105484,-2.4939025887450255,1.3695824116926405,0.006807372887910786,-2.5050928672413995,1.287706189616619,24.200000000000003,0x0000,0x4056
7,0.3510749480001323,adis16470,-0.02375,-0.04,0.99625,-0.2329079375,-0.392266,9.769875062499999,0.24800000000000003,0.11200000000000002,-0.04400000000000001,0.004328416544945938,0.0019547687622336494,-0.0007679448708775052,-2.477843445548112,1.3749756668989388,0.004604919799913657,-2.299222927202569,1.3645392050319205,24.6,0x0000,0x4056
8,0.4011324970001624,adis16470,-0.02125,-0.0425,0.99625,-0.2083913125,-0.416782625,9.769875062499999,-0.252,-0.188,0.156,-0.0043982297150257105,-0.0032812189937493396,0.002722713633111154,-2.489503883097508,1.3626700197867694,0.012413888707939802,-2.4427553994518125,1.2208229368080072,24.1,0x0000,0x4056
9,0.4511885819999861,adis16470,-0.0225,-0.043750000000000004,0.99625,-0.220649625,-0.4290409375,9.769875062499999,-0.252,-0.088,-0.44400000000000006,-0.0043982297150257105,-0.00153588974175501,-0.007749261878854824,-2.5023658657933883,1.3569506272646974,-0.009811021467993675,-2.514510245701381,1.2925423141305157,24.1,0x0000,0x4056
10,0.5012458210001114,adis16470,-0.02375,-0.04,0.9975,-0.2329079375,-0.392266,9.782133375,0.048000000000000015,0.11200000000000002,0.156,0.0008377580409572784,0.0019547687622336494,0.002722713633111154,-2.495890753332157,1.3625625461581334,-0.002002097955984033,-2.2963447818359826,1.362832647360151,24.3,0x0000,0x4056
11,0.551302473000078,adis16470,-0.02625,-0.043750000000000004,0.99375,-0.25742456249999995,-0.4290409375,9.7453584375,-0.05199999999999999,0.21200000000000005,0.055999999999999994,-0.0009075712110370513,0.0037000980142279797,0.0009773843811168245,-2.4989403994580393,1.3759442904374426,0.000801092196018538,-2.520827907710173,1.5116579869271172,23.900000000000002,0x0000,0x4056
12,0.6013733280001361,adis16470,-0.025,-0.04625,0.99875,-0.24516625,-0.45355756249999996,9.7943916875,-0.352,0.11200000000000002,0.055999999999999994,-0.00614355896702004,0.0019547687622336494,0.0009773843811168245,-2.5192614999216816,1.3825683853223283,0.003605128508011142,-2.6513522385464277,1.4323534761064571,23.900000000000002,0x0000,0x4056
13,0.6514307950001239,adis16470,-0.0225,-0.0425,0.99375,-0.220649625,-0.416782625,9.7453584375,0.048000000000000015,0.31200000000000006,-0.14400000000000002,0.0008377580409572784,0.005445427266222309,-0.002513274122871835,-2.515499489484081,1.3961393532366648,-0.0036029681800091636,-2.448893223945978,1.2958571826610086,24.3,0x0000,0x4056
14,0.70148878100008,adis16470,-0.02375,-0.0425,0.9912500000000001,-0.2329079375,-0.416782625,9.7208418125,0.44800000000000006,0.01200000000000001,0.156,0.007819075048934598,0.00020943951023931972,0.002722713633111154,-2.4923133784627916,1.3962305399509227,0.004206042847997189,-2.4550619517964942,1.3712647243055276,23.900000000000002,0x0000,0x4056
15,0.7515447480000148,adis16470,-0.02625,-0.04875,0.99375,-0.25742456249999995,-0.47807418749999997,9.7453584375,0.24800000000000003,0.01200000000000001,0.156,0.004328416544945938,0.00020943951023931972,0.002722713633111154,-2.4864711792433605,1.399120688178332,0.012014791015981238,-2.808484877345993,1.5113049774574339,24.3,0x0000,0x4056
16,0.8016006970001399,adis16470,-0.02875,-0.0425,1.0,-0.2819411875,-0.416782625,9.80665,-0.05199999999999999,0.11200000000000002,0.055999999999999994,-0.0009075712110370513,0.0019547687622336494,0.0009773843811168245,-2.4879647184380964,1.4095387048953372,0.014817912735981728,-2.4336061007201217,1.6453155954685392,24.200000000000003,0x0000,0x4056
17,0.8516568300001381,adis16470,-0.025,-0.0375,0.99875,-0.24516625,-0.367749375,9.7943916875,0.048000000000000015,-0.188,0.055999999999999994,0.0008377580409572784,-0.0032812189937493396,0.0009773843811168245,-2.478856195012608,1.400783146193977,0.017621060383988144,-2.15027074837995,1.4328785579243786,24.1,0x0000,0x4056
18,0.9017136310001206,adis16470,-0.02375,-0.0425,0.9975,-0.2329079375,-0.416782625,9.782133375,-0.05199999999999999,0.01200000000000001,-0.04400000000000001,-0.0009075712110370513,0.00020943951023931972,-0.0007679448708775052,-2.4806239295329098,1.4006099861542296,0.015418557883993336,-2.4396980035280196,1.3626917017066766,24.200000000000003,0x0000,0x4056
19,0.9517699870000342,adis16470,-0.0225,-0.04125,0.99875,-0.220649625,-0.4045243125,9.7943916875,-0.152,0.11200000000000002,-0.3440000000000001,-0.0026529004630313807,0.0019547687622336494,-0.006003932626860495,-2.48576918997977,1.403881033714286,-0.0018009431320169939,-2.3650647322036913,1.289451254924875,24.1,0x0000,0x4056
20,1.0018271760000061,adis16470,-0.025,-0.0425,0.99625,-0.24516625,-0.416782625,9.769875062499999,0.3480000000000001,0.01200000000000001,-0.14400000000000002,0.006073745796940268,0.00020943951023931972,-0.002513274122871835,-2.467837309143766,1.4051156653147565,-0.009009221116019046,-2.4427553994518125,1.436178811969814,24.200000000000003,0x0000,0x4056
21,1.0518830690000414,adis16470,-0.02125,-0.0425,0.9975,-0.2083913125,-0.416782625,9.782133375,0.048000000000000015,-0.088,0.055999999999999994,0.0008377580409572784,-0.00153588974175501,0.0009773843811168245,-2.4649199252004093,1.3970825156915283,-0.006206128460016783,-2.4396980035280196,1.2192963186655161,24.3,0x0000,0x4056
22,1.1019441840001036,adis16470,-0.02625,-0.03875,0.995,-0.25742456249999995,-0.38000768749999997,9.757616749999999,-0.05199999999999999,0.11200000000000002,0.256,-0.0009075712110370513,0.0019547687622336494,0.004468042885105484,-2.4627774674820713,1.404837124129877,0.006609526451957197,-2.230241223987788,1.5100773354335089,24.3,0x0000,0x4056
23,1.1520001700000648,adis16470,-0.025,-0.043750000000000004,0.99375,-0.24516625,-0.4290409375,9.7453584375,0.14800000000000002,-0.088,-0.04400000000000001,0.0025830872929516083,-0.00153588974175501,-0.0007679448708775052,-2.456678380298854,1.4012176743461526,0.0044070704159512265,-2.520827907710173,1.4397053264722512,24.1,0x0000,0x4056
24,1.2020617660000426,adis16470,-0.02625,-0.043750000000000004,0.995,-0.25742456249999995,-0.4290409375,9.757616749999999,-0.252,0.11200000000000002,-0.04400000000000001,-0.0043982297150257105,0.0019547687622336494,-0.0007679448708775052,-2.470261523587799,1.4088834383884228,0.0022043251239528996,-2.5176651159825814,1.5097634636758739,23.900000000000002,0x0000,0x4056
25,1.2521187150000515,adis16470,-0.02375,-0.04125,1.0025,-0.2329079375,-0.4045243125,9.831166624999998,0.048000000000000015,0.11200000000000002,-0.24400000000000002,0.0008377580409572784,0.0019547687622336494,-0.004258603374866165,-2.4656261920956077,1.4133195808852828,-0.010009461852032487,-2.356227846386066,1.3559804692797475,24.200000000000003,0x0000,0x4056
26,1.3021774040000764,adis16470,-0.0225,-0.0425,0.9975,-0.220649625,-0.416782625,9.782133375,-0.152,0.11200000000000002,0.055999999999999994,-0.0026529004630313807,0.0019547687622336494,0.0009773843811168245,-2.472564332057061,1.4163675231864377,-0.0072061897720304986,-2.4396980035280196,1.2909960321028293,24.1,0x0000,0x4056
27,1.3522344820000853,adis16470,-0.02625,-0.045,0.9975,-0.25742456249999995,-0.44129925,9.782133375,-0.152,-0.088,-0.04400000000000001,-0.0026529004630313807,-0.00153588974175501,-0.0007679448708775052,-2.482229974980771,1.4138413395550853,-0.009408705296027635,-2.583020668635057,1.5059048629705332,23.900000000000002,0x0000,0x4056
28,1.4022950230000788,adis16470,-0.025,-0.0425,0.99625,-0.24516625,-0.416782625,9.769875062499999,-0.252,0.01200000000000001,0.156,-0.0043982297150257105,0.00020943951023931972,0.002722713633111154,-2.4938035122210125,1.4148768046581808,-0.001599211916014625,-2.4427553994518125,1.436178811969814,24.0,0x0000,0x4056
29,1.4523517679999713,adis16470,-0.02375,-0.043750000000000004,0.99625,-0.2329079375,-0.4290409375,9.769875062499999,-0.352,0.01200000000000001,-0.14400000000000002,-0.00614355896702004,0.00020943951023931972,-0.002513274122871835,-2.5114851705916936,1.4144544100171181,-0.008807361883995342,-2.514510245701381,1.3643237935691321,24.400000000000002,0x0000,0x4056
30,1.5024101480000809,adis16470,-0.025,-0.04625,0.9925,-0.24516625,-0.45355756249999996,9.733100125,0.14800000000000002,0.11200000000000002,-0.04400000000000001,0.0025830872929516083,0.0019547687622336494,-0.0007679448708775052,-2.5073555111944423,1.420486712598076,-0.011009923255997835,-2.668024361405546,1.441350066120706,24.3,0x0000,0x4056
31,1.5524667189999946,adis16470,-0.02375,-0.045,0.995,-0.2329079375,-0.44129925,9.757616749999999,-0.05199999999999999,0.11200000000000002,-0.24400000000000002,-0.0009075712110370513,0.0019547687622336494,-0.004258603374866165,-2.511549328315609,1.424890353074636,-0.02322376269198323,-2.589501847240921,1.365957462554402,24.0,0x0000,0x4056
32,1.6025282150001203,adis16470,-0.02125,-0.0425,0.99625,-0.2083913125,-0.416782625,9.769875062499999,0.24800000000000003,0.01200000000000001,-0.3440000000000001,0.004328416544945938,0.00020943951023931972,-0.006003932626860495,-2.498006553087613,1.4213977255549834,-0.04044484748398283,-2.4427553994518125,1.2208229368080072,24.400000000000002,0x0000,0x4056
33,1.652584489999981,adis16470,-0.02125,-0.04,0.9925,-0.2083913125,-0.392266,9.733100125,-0.05199999999999999,0.21200000000000005,0.156,-0.0009075712110370513,0.0037000980142279797,0.002722713633111154,-2.496755322597305,1.4278806084270297,-0.0326360166359864,-2.3079007913882768,1.2255538252535378,24.3,0x0000,0x4056
34,1.702641950000043,adis16470,-0.02625,-0.0425,1.0,-0.25742456249999995,-0.416782625,9.80665,-0.05199999999999999,0.01200000000000001,-0.04400000000000001,-0.0009075712110370513,0.00020943951023931972,-0.0007679448708775052,-2.4980432446124023,1.4299579341664688,-0.034838526131987256,-2.4336061007201217,1.502313359406973,23.900000000000002,0x0000,0x4056
35,1.7526977429999988,adis16470,-0.02625,-0.043750000000000004,1.00125,-0.25742456249999995,-0.4290409375,9.8189083125,-0.05199999999999999,-0.188,0.055999999999999994,-0.0009075712110370513,-0.0032812189937493396,0.0009773843811168245,-2.5006726097579315,1.4221437305133493,-0.032035402731979065,-2.501969387188487,1.5003615508118473,24.200000000000003,0x0000,0x4056
36,1.8027585360000558,adis16470,-0.025,-0.04,0.995,-0.24516625,-0.392266,9.757616749999999,0.14800000000000002,0.01200000000000001,0.156,0.0025830872929516083,0.00020943951023931972,0.002722713633111154,-2.48944043086406,1.4230521467356538,-0.02422583821597347,-2.3021082924366265,1.4381284907605576,24.3,0x0000,0x4056
37,1.852814995000017,adis16470,-0.0275,-0.04125,0.99875,-0.269682875,-0.4045243125,9.7943916875,-0.152,-0.088,0.055999999999999994,-0.0026529004630313807,-0.00153588974175501,0.0009773843811168245,-2.494409280250034,1.4217915542141737,-0.021422694095980677,-2.3650647322036913,1.575864617901093,24.1,0x0000,0x4056
38,1.9028762699999788,adis16470,-0.02375,-0.03875,0.9975,-0.2329079375,-0.38000768749999997,9.782133375,-0.152,0.01200000000000001,0.256,-0.0026529004630313807,0.00020943951023931972,0.004468042885105484,-2.496471350888844,1.4212024410526956,-0.00860703636797827,-2.2246572701664533,1.362899932296251,24.1,0x0000,0x4056
39,1.9529318780000722,adis16470,-0.0225,-0.04625,0.99875,-0.220649625,-0.45355756249999996,9.7943916875,-0.252,0.01200000000000001,0.256,-0.0043982297150257105,0.00020943951023931972,0.004468042885105484,-2.511930674181148,1.419150427884836,0.0042071708640551,-2.6513522385464277,1.2891691504236251,24.200000000000003,0x0000,0x4056
40,2.002991967000071,adis16470,-0.02,-0.0425,0.99625,-0.196133,-0.416782625,9.769875062499999,0.24800000000000003,0.21200000000000005,0.156,0.004328416544945938,0.0037000980142279797,0.002722713633111154,-2.4983803755708918,1.4241486585969418,0.012016666116048312,-2.4427553994518125,1.149029677094578,24.200000000000003,0x0000,0x4056
41,2.0530514820000008,adis16470,-0.0275,-0.0425,0.99375,-0.269682875,-0.416782625,9.7453584375,0.048000000000000015,-0.088,0.055999999999999994,0.0008377580409572784,-0.00153588974175501,0.0009773843811168245,-2.495035830365592,1.423022390467227,0.014820002036050012,-2.448893223945978,1.5836921179513255,24.3,0x0000,0x4056
42,2.103112923000026,adis16470,-0.0275,-0.0475,1.0,-0.269682875,-0.465815875,9.80665,-0.05199999999999999,0.01200000000000001,-0.04400000000000001,-0.0009075712110370513,0.00020943951023931972,-0.0007679448708775052,-2.5020763474432397,1.4266199387937617,0.012617304308058904,-2.719505461272505,1.573463755338082,24.1,0x0000,0x4056
43,2.1531714010000087,adis16470,-0.025,-0.04125,0.995,-0.24516625,-0.4045243125,9.757616749999999,0.14800000000000002,0.21200000000000005,-0.04400000000000001,0.0025830872929516083,0.0037000980142279797,-0.0007679448708775052,-2.4922537092445696,1.4372487753843703,0.010414733740053618,-2.373968113854626,1.43805488058695,24.3,0x0000,0x4056
44,2.2032376009999552,adis16470,-0.025,-0.045,0.99625,-0.24516625,-0.44129925,9.769875062499999,-0.05199999999999999,0.01200000000000001,-0.14400000000000002,-0.0009075712110370513,0.00020943951023931972,-0.002513274122871835,-2.4966851573556186,1.437812997979237,0.003205187548039231,-2.586257200232757,1.436020924843635,24.200000000000003,0x0000,0x4056
45,2.2532938379999905,adis16470,-0.025,-0.043750000000000004,0.9975,-0.24516625,-0.4290409375,9.782133375,0.048000000000000015,0.01200000000000001,-0.14400000000000002,0.0008377580409572784,0.00020943951023931972,-0.002513274122871835,-2.4946240933085773,1.4383315060312585,-0.004002851971930813,-2.511363267163078,1.4343055725404372,23.900000000000002,0x0000,0x4056
46,2.303351872000121,adis16470,-0.025,-0.0425,0.99875,-0.24516625,-0.416782625,9.7943916875,-0.05199999999999999,0.11200000000000002,0.356,-0.0009075712110370513,0.0019547687622336494,0.006213372137099813,-2.496015528134697,1.44371107102992,0.013817768616128871,-2.436648246810131,1.4325918745394013,23.8,0x0000,0x4056
47,2.3534104430000298,adis16470,-0.02625,-0.043750000000000004,0.99625,-0.25742456249999995,-0.4290409375,9.769875062499999,-0.152,0.01200000000000001,0.055999999999999994,-0.0026529004630313807,0.00020943951023931972,0.0009773843811168245,-2.5038421939956303,1.445583015647476,0.01662106617612879,-2.514510245701381,1.5078736775277222,24.200000000000003,0x0000,0x4056
48,2.403469366000081,adis16470,-0.02375,-0.04,0.99375,-0.2329079375,-0.392266,9.7453584375,-0.152,0.01200000000000001,0.055999999999999994,-0.0026529004630313807,0.00020943951023931972,0.0009773843811168245,-2.5073221453802574,1.444619351500149,0.019424365864118935,-2.305000904724289,1.3679651615572295,24.3,0x0000,0x4056
49,2.453526140000122,adis16470,-0.02125,-0.04625,0.9975,-0.2083913125,-0.45355756249999996,9.782133375,0.048000000000000015,-0.188,0.055999999999999994,0.0008377580409572784,-0.0032812189937493396,0.0009773843811168245,-2.507914443709254,1.430886409820602,0.022227530704121798,-2.6546699851102225,1.2190928837032613,24.3,0x0000,0x4056
50,2.5035823270000037,adis16470,-0.0225,-0.0425,0.9975,-0.220649625,-0.416782625,9.782133375,-0.152,0.11200000000000002,-0.04400000000000001,-0.0026529004630313807,0.0019547687622336494,-0.0007679448708775052,-2.514006467986611,1.4335827571680224,0.02002506336011536,-2.4396980035280196,1.2909960321028293,24.6,0x0000,0x4056
51,2.5536395200001607,adis16470,-0.02625,-0.043750000000000004,0.995,-0.25742456249999995,-0.4290409375,9.757616749999999,0.14800000000000002,0.01200000000000001,0.055999999999999994,0.0025830872929516083,0.00020943951023931972,0.0009773843811168245,-2.506819318841408,1.4356950460634594,0.022828276528116455,-2.5176651159825814,1.5097634636758739,24.1,0x0000,0x4056
52,2.6036966210001538,adis16470,-0.02375,-0.04,0.99625,-0.2329079375,-0.392266,9.769875062499999,0.048000000000000015,0.21200000000000005,0.45599999999999996,0.0008377580409572784,0.0037000980142279797,0.007958701389094143,-2.500312702390398,1.4446718039733608,0.045654339664055424,-2.299222927202569,1.3645392050319205,24.3,0x0000,0x4056
53,2.653752721000046,adis16470,-0.025,-0.043750000000000004,1.0,-0.24516625,-0.4290409375,9.80665,-0.05199999999999999,-0.188,0.055999999999999994,-0.0009075712110370513,-0.0032812189937493396,0.0009773843811168245,-2.5029591617406193,1.4351706053002524,0.04845747818405651,-2.5050928672413995,1.4307281568581158,24.200000000000003,0x0000,0x4056
54,2.703808618000039,adis16470,-0.02375,-0.04,0.995,-0.2329079375,-0.392266,9.757616749999999,0.048000000000000015,0.01200000000000001,-0.04400000000000001,0.0008377580409572784,0.00020943951023931972,-0.0007679448708775052,-2.496587526249258,1.4343808484754008,0.046255029276055196,-2.3021082924366265,1.366250037741653,24.1,0x0000,0x4056
55,2.753864700000122,adis16470,-0.02625,-0.0425,0.99875,-0.25742456249999995,-0.416782625,9.7943916875,0.048000000000000015,0.11200000000000002,-0.14400000000000002,0.0008377580409572784,0.0019547687622336494,-0.002513274122871835,-2.4930340982355146,1.4412711840295171,0.0390469402200524,-2.436648246810131,1.5041893432691158,24.1,0x0000,0x4056
56,2.803920504999951,adis16470,-0.02875,-0.0425,0.99875,-0.2819411875,-0.416782625,9.7943916875,-0.152,0.01200000000000001,-0.14400000000000002,-0.0026529004630313807,0.00020943951023931972,-0.002513274122871835,-2.499362677385227,1.4459818145570884,0.0318389202840717,-2.436648246810131,1.6473699623361524,24.1,0x0000,0x4056
57,2.853978309000013,adis16470,-0.025,-0.043750000000000004,0.995,-0.24516625,-0.4290409375,9.757616749999999,-0.152,0.11200000000000002,-0.24400000000000002,-0.0026529004630313807,0.0019547687622336494,-0.004258603374866165,-2.507185452382939,1.4513146261567764,0.019624626520064324,-2.5176651159825814,1.4379009020133349,24.3,0x0000,0x4056
58,2.9040377240000907,adis16470,-0.02125,-0.045,1.0,-0.2083913125,-0.44129925,9.80665,-0.05199999999999999,0.01200000000000001,0.055999999999999994,-0.0009075712110370513,0.00020943951023931972,0.0009773843811168245,-2.5111241917276157,1.447199464050513,0.022427936176063652,-2.5765718302688305,1.2161217694556146,24.1,0x0000,0x4056
59,2.954095380000126,adis16470,-0.025,-0.04,0.99375,-0.24516625,-0.392266,9.7453584375,0.048000000000000015,0.01200000000000001,0.055999999999999994,0.0008377580409572784,0.00020943951023931972,0.0009773843811168245,-2.5046470121088245,1.4476428287039034,0.02523116698406919,-2.305000904724289,1.4399337732359763,24.3,0x0000,0x4056
60,3.0041521850000663,adis16470,-0.0275,-0.04,0.995,-0.269682875,-0.392266,9.757616749999999,-0.152,0.01200000000000001,-0.04400000000000001,-0.0026529004630313807,0.00020943951023931972,-0.0007679448708775052,-2.5080526855349023,1.4509160708432018,0.023028671656068568,-2.3021082924366265,1.5818715890128172,24.200000000000003,0x0000,0x4056
61,3.0542085439999482,adis16470,-0.025,-0.0425,0.9975,-0.24516625,-0.416782625,9.782133375,-0.05199999999999999,-0.088,-0.14400000000000002,-0.0009075712110370513,-0.00153588974175501,-0.002513274122871835,-2.5092364479479654,1.4462685781718256,0.015820601176065777,-2.4396980035280196,1.4343831033144696,24.400000000000002,0x0000,0x4056
62,3.1042664779999996,adis16470,-0.025,-0.03875,1.00125,-0.24516625,-0.38000768749999997,9.8189083125,0.14800000000000002,0.11200000000000002,0.256,0.0025830872929516083,0.0019547687622336494,0.004468042885105484,-2.4961179388471337,1.4514223923565892,0.0286355175280505,-2.2163335451899555,1.4292395181143318,23.900000000000002,0x0000,0x4056
63,3.1543233750001036,adis16470,-0.02125,-0.04125,0.9912500000000001,-0.2083913125,-0.4045243125,9.7208418125,-0.152,0.11200000000000002,0.055999999999999994,-0.0026529004630313807,0.0019547687622336494,0.0009773843811168245,-2.5013107834107284,1.4524288152870142,0.031438686120051886,-2.382938744290699,1.2270330168616959,23.8,0x0000,0x4056
64,3.204381753000007,adis16470,-0.02625,-0.043750000000000004,0.995,-0.25742456249999995,-0.4290409375,9.757616749999999,-0.152,0.01200000000000001,0.156,-0.0026529004630313807,0.00020943951023931972,0.002722713633111154,-2.509094615652729,1.4541641986961515,0.039247845036054954,-2.5176651159825814,1.5097634636758739,24.200000000000003,0x0000,0x4056
65,3.254438354000058,adis16470,-0.0225,-0.045,0.9925,-0.220649625,-0.44129925,9.733100125,-0.05199999999999999,0.11200000000000002,-0.04400000000000001,-0.0009075712110370513,0.0019547687622336494,-0.0007679448708775052,-2.5133839038703356,1.456521932156334,0.03704536845205619,-2.596015609805137,1.2973419741374346,24.1,0x0000,0x4056
66,3.304494658000067,adis16470,-0.025,-0.0425,0.9975,-0.24516625,-0.416782625,9.782133375,0.14800000000000002,0.01200000000000001,-0.04400000000000001,0.0025830872929516083,0.00020943951023931972,-0.0007679448708775052,-2.5046500114091077,1.4566678183730952,0.034842888612061855,-2.4396980035280196,1.4343831033144696,24.1,0x0000,0x4056
67,3.3545546660000127,adis16470,-0.02875,-0.043750000000000004,0.9975,-0.2819411875,-0.4290409375,9.782133375,0.14800000000000002,0.11200000000000002,0.156,0.0025830872929516083,0.0019547687622336494,0.002722713633111154,-2.497523540764973,1.4660158791981597,0.04265228449207733,-2.511363267163078,1.6493403173857675,24.1,0x0000,0x4056
68,3.4046111919999476,adis16470,-0.025,-0.03875,0.99625,-0.24516625,-0.38000768749999997,9.769875062499999,-0.45199999999999996,0.01200000000000001,0.156,-0.00788888821901437,0.00020943951023931972,0.002722713633111154,-2.5142948925757445,1.4660121991388406,0.05046105637209437,-2.227445749261137,1.4363988129921408,23.900000000000002,0x0000,0x4056
69,3.4546672559999934,adis16470,-0.02875,-0.04125,0.99375,-0.2819411875,-0.4045243125,9.7453584375,0.14800000000000002,-0.28800000000000003,0.156,0.0025830872929516083,-0.00502654824574367,0.002722713633111154,-2.5042878499015884,1.4556786037143843,0.058269834180084204,-2.37695081440348,1.655726481931099,24.8,0x0000,0x4056
70,3.504722973000071,adis16470,-0.02375,-0.0425,0.99625,-0.2329079375,-0.416782625,9.769875062499999,-0.152,0.21200000000000005,0.156,-0.0026529004630313807,0.0037000980142279797,0.002722713633111154,-2.510513459086042,1.4642525042325074,0.06607848266409382,-2.4427553994518125,1.3643977292879048,24.1,0x0000,0x4056
71,3.554781140000159,adis16470,-0.02375,-0.04125,0.9975,-0.2329079375,-0.4045243125,9.782133375,-0.05199999999999999,-0.088,-0.04400000000000001,-0.0009075712110370513,-0.00153588974175501,-0.0007679448708775052,-2.5102146759322914,1.457905669015195,0.06387590620010086,-2.368025100710918,1.3627632368381979,24.3,0x0000,0x4056
72,3.604837863000057,adis16470,-0.02375,-0.04,0.9975,-0.2329079375,-0.392266,9.782133375,-0.05199999999999999,0.01200000000000001,-0.04400000000000001,-0.0009075712110370513,0.00020943951023931972,-0.0007679448708775052,-2.508488162946934,1.4565928743274563,0.06167341531609326,-2.2963447818359826,1.362832647360151,24.700000000000003,0x0000,0x4056
73,3.6548951600000237,adis16470,-0.025,-0.05,0.99375,-0.24516625,-0.4903325,9.7453584375,0.048000000000000015,0.11200000000000002,0.156,0.0008377580409572784,0.0019547687622336494,0.002722713633111154,-2.513571260715507,1.4617408817826993,0.06948233633209383,-2.8803775528476065,1.439279410321594,24.1,0x0000,0x4056
74,3.7049512900000536,adis16470,-0.02875,-0.03875,0.99625,-0.2819411875,-0.38000768749999997,9.769875062499999,-0.252,0.01200000000000001,0.055999999999999994,-0.0043982297150257105,0.00020943951023931972,0.0009773843811168245,-2.5202105849386203,1.4661296640683468,0.07228547339608485,-2.227445749261137,1.651747056893164,24.3,0x0000,0x4056
75,3.7550072169999567,adis16470,-0.025,-0.043750000000000004,0.9975,-0.24516625,-0.4290409375,9.782133375,0.24800000000000003,0.01200000000000001,-0.04400000000000001,0.004328416544945938,0.00020943951023931972,-0.0007679448708775052,-2.5078680327178287,1.4660818405861087,0.07008301018808469,-2.511363267163078,1.4343055725404372,24.0,0x0000,0x4056
76,3.8050629389999813,adis16470,-0.02,-0.04125,0.99625,-0.196133,-0.4045243125,9.769875062499999,-0.252,-0.088,0.055999999999999994,-0.0043982297150257105,-0.00153588974175501,0.0009773843811168245,-2.517492236296437,1.4554252204426932,0.07288611824408962,-2.370992885299152,1.1490901537277134,24.200000000000003,0x0000,0x4056
77,3.8551189770000747,adis16470,-0.025,-0.043750000000000004,0.99875,-0.24516625,-0.4290409375,9.7943916875,-0.05199999999999999,0.01200000000000001,0.055999999999999994,-0.0009075712110370513,0.00020943951023931972,0.0009773843811168245,-2.519857739710834,1.4555556698931946,0.07568926673208716,-2.508224150812405,1.4325146338437975,24.1,0x0000,0x4056
78,3.90517551500011,adis16470,-0.02625,-0.0425,0.99625,-0.25742456249999995,-0.416782625,9.769875062499999,-0.05199999999999999,0.01200000000000001,0.055999999999999994,-0.0009075712110370513,0.00020943951023931972,0.0009773843811168245,-2.5208665740821354,1.4571923290959763,0.07849243286008914,-2.4427553994518125,1.507955385688253,24.3,0x0000,0x4056
79,3.9552341080000133,adis16470,-0.02125,-0.045,0.9975,-0.2083913125,-0.44129925,9.782133375,-0.152,0.01200000000000001,-0.04400000000000001,-0.0026529004630313807,0.00020943951023931972,-0.0007679448708775052,-2.529566477682325,1.4530204308462846,0.07628982709208594,-2.583020668635057,1.2191625940753479,24.1,0x0000,0x4056
80,4.005291219000128,adis16470,-0.02375,-0.0425,0.995,-0.2329079375,-0.416782625,9.757616749999999,0.14800000000000002,0.01200000000000001,-0.14400000000000002,0.0025830872929516083,0.00020943951023931972,-0.002513274122871835,-2.520631324924338,1.4518708503118978,0.06908165365209151,-2.445820463302709,1.3661080292469643,24.3,0x0000,0x4056
81,4.055347904999962,adis16470,-0.03125,-0.04,0.99625,-0.3064578125,-0.392266,9.769875062499999,-0.05199999999999999,0.11200000000000002,0.256,-0.0009075712110370513,0.0019547687622336494,0.004468042885105484,-2.5187540315215733,1.4642315880607948,0.08189609410004504,-2.299222927202569,1.795198170653746,24.200000000000003,0x0000,0x4056
82,4.105403943000056,adis16470,-0.02625,-0.043750000000000004,0.9975,-0.25742456249999995,-0.4290409375,9.782133375,-0.05199999999999999,0.01200000000000001,-0.14400000000000002,-0.0009075712110370513,0.00020943951023931972,-0.002513274122871835,-2.521157071930888,1.4656553875216392,0.07468802462803159,-2.511363267163078,1.5059886107589662,24.1,0x0000,0x4056
83,4.155460480000102,adis16470,-0.0225,-0.045,1.0025,-0.220649625,-0.44129925,9.831166624999998,0.14800000000000002,0.11200000000000002,0.055999999999999994,0.0025830872929516083,0.0019547687622336494,0.0009773843811168245,-2.5148768347934376,1.4675251114723902,0.07749118969203209,-2.570155090846444,1.2844314087871418,24.1,0x0000,0x4056
84,4.205515332999994,adis16470,-0.0225,-0.04125,0.9975,-0.220649625,-0.4045243125,9.782133375,0.24800000000000003,-0.088,0.256,0.004328416544945938,-0.00153588974175501,0.004468042885105484,-2.4997744822489,1.4596791596727825,0.09030521772403971,-2.368025100710918,1.2910638061561284,24.200000000000003,0x0000,0x4056
85,4.255572297000072,adis16470,-0.02375,-0.04125,0.995,-0.2329079375,-0.4045243125,9.757616749999999,-0.252,0.21200000000000005,0.156,-0.0043982297150257105,0.0037000980142279797,0.002722713633111154,-2.5096204683980394,1.4682090518311954,0.09811413296803038,-2.373968113854626,1.3661801037820596,24.1,0x0000,0x4056
86,4.305635277999954,adis16470,-0.02125,-0.03875,0.9975,-0.2083913125,-0.38000768749999997,9.782133375,-0.05199999999999999,0.01200000000000001,0.156,-0.0009075712110370513,0.00020943951023931972,0.002722713633111154,-2.5064724101741267,1.4638232636062198,0.10592394646002776,-2.2246572701664533,1.2194826512664287,24.3,0x0000,0x4056
87,4.355691649000164,adis16470,-0.0225,-0.04125,0.99625,-0.220649625,-0.4045243125,9.769875062499999,-0.352,-0.088,0.055999999999999994,-0.00614355896702004,-0.00153588974175501,0.0009773843811168245,-2.521030265416781,1.4560835447292848,0.10872710323602677,-2.370992885299152,1.2926803915114013,24.200000000000003,0x0000,0x4056
88,4.405750168000168,adis16470,-0.02375,-0.0425,1.0,-0.2329079375,-0.416782625,9.80665,0.048000000000000015,-0.088,0.356,0.0008377580409572784,-0.00153588974175501,0.006213372137099813,-2.516927029389088,1.44983067515358,0.12654793600002812,-2.4336061007201217,1.3592923998720736,24.1,0x0000,0x4056
89,4.455806780000103,adis16470,-0.02875,-0.04,0.99875,-0.2819411875,-0.392266,9.7943916875,0.24800000000000003,0.11200000000000002,0.055999999999999994,0.004328416544945938,0.0019547687622336494,0.0009773843811168245,-2.5002922020318423,1.4592790753123452,0.12935110728002655,-2.293473829286471,1.6475398976519882,24.3,0x0000,0x4056
90,4.505868416000112,adis16470,-0.02125,-0.045,0.99625,-0.2083913125,-0.44129925,9.769875062499999,-0.05199999999999999,0.21200000000000005,-0.04400000000000001,-0.0009075712110370513,0.0037000980142279797,-0.0007679448708775052,-2.504562633538828,1.4649080350529884,0.12714840343602007,-2.586257200232757,1.2206887093549816,24.3,0x0000,0x4056
91,4.555925168000158,adis16470,-0.0225,-0.04,0.9975,-0.220649625,-0.392266,9.782133375,0.048000000000000015,-0.188,0.055999999999999994,0.0008377580409572784,-0.0032812189937493396,0.0009773843811168245,-2.49804355721645,1.4522098151521075,0.12995164068402118,-2.2963447818359826,1.2911295673051264,24.3,0x0000,0x4056
92,4.605983550000019,adis16470,-0.02625,-0.043750000000000004,0.99625,-0.25742456249999995,-0.4290409375,9.769875062499999,0.048000000000000015,0.11200000000000002,-0.14400000000000002,0.0008377580409572784,0.0019547687622336494,-0.002513274122871835,-2.4960181481778303,1.4588174922856956,0.12274324433202673,-2.514510245701381,1.5078736775277222,24.3,0x0000,0x4056
93,4.656040228000165,adis16470,-0.02375,-0.04125,1.0,-0.2329079375,-0.4045243125,9.80665,-0.05199999999999999,0.21200000000000005,0.156,-0.0009075712110370513,0.0037000980142279797,0.002722713633111154,-2.495890899138162,1.467228147444999,0.13055205724003552,-2.3621117520302737,1.359363400966283,24.1,0x0000,0x4056
94,4.706097517999979,adis16470,-0.0225,-0.0425,0.9975,-0.220649625,-0.416782625,9.782133375,0.048000000000000015,0.01200000000000001,0.055999999999999994,0.0008377580409572784,0.00020943951023931972,0.0009773843811168245,-2.492412368130921,1.464292173411915,0.13335523949603245,-2.4396980035280196,1.2909960321028293,24.200000000000003,0x0000,0x4056
95,4.756155176999982,adis16470,-0.025,-0.043750000000000004,0.995,-0.24516625,-0.4290409375,9.757616749999999,0.14800000000000002,-0.088,-0.04400000000000001,0.0025830872929516083,-0.00153588974175501,-0.0007679448708775052,-2.4856570225161967,1.4594473530493848,0.13115269106003322,-2.5176651159825814,1.4379009020133349,24.200000000000003,0x0000,0x4056
96,4.806212021999954,adis16470,-0.02625,-0.0425,0.9925,-0.25742456249999995,-0.416782625,9.733100125,0.048000000000000015,0.21200000000000005,0.156,0.0008377580409572784,0.0037000980142279797,0.002722713633111154,-2.482628694468271,1.4709309603104186,0.13896151847603047,-2.4519737103918633,1.513639900733258,24.6,0x0000,0x4056
97,4.85626883000009,adis16470,-0.0275,-0.0425,0.9975,-0.269682875,-0.416782625,9.782133375,0.048000000000000015,0.01200000000000001,-0.04400000000000001,0.0008377580409572784,0.00020943951023931972,-0.0007679448708775052,-2.4794154014392285,1.4736560550326985,0.13675901241203334,-2.4396980035280196,1.5777522062964544,24.3,0x0000,0x4056
98,4.90632637900012,adis16470,-0.02375,-0.04,0.9975,-0.2329079375,-0.392266,9.782133375,-0.05199999999999999,0.01200000000000001,-0.14400000000000002,-0.0009075712110370513,0.00020943951023931972,-0.002513274122871835,-2.4783049094628473,1.4720282608213286,0.12955076006002214,-2.2963447818359826,1.362832647360151,24.200000000000003,0x0000,0x4056
99,4.95638261299996,adis16470,-0.02625,-0.045,0.9925,-0.25742456249999995,-0.44129925,9.733100125,-0.252,0.01200000000000001,-0.04400000000000001,-0.0043982297150257105,0.00020943951023931972,-0.0007679448708775052,-2.4930210841184666,1.4734458053646087,0.12734827274002686,-2.596015609805137,1.5134722483453968,24.1,0x0000,0x4056
100,5.006440272999953,adis16470,-0.025,-0.04625,0.9975,-0.24516625,-0.45355756249999996,9.782133375,-0.152,0.11200000000000002,-0.04400000000000001,-0.0026529004630313807,0.0019547687622336494,-0.0007679448708775052,-2.5037106566834297,1.4781540982735262,0.12514573407202437,-2.6546699851102225,1.434143809674166,24.1,0x0000,0x4056
101,5.056497394999951,adis16470,-0.02625,-0.04125,0.995,-0.25742456249999995,-0.4045243125,9.757616749999999,0.048000000000000015,0.11200000000000002,-0.04400000000000001,0.0008377580409572784,0.0019547687622336494,-0.0007679448708775052,-2.4987611231356506,1.484283778535716,0.12294322475202164,-2.373968113854626,1.5099251307426664,23.900000000000002,0x0000,0x4056
102,5.10655703600014,adis16470,-0.02125,-0.04125,0.995,-0.2083913125,-0.4045243125,9.757616749999999,0.048000000000000015,0.01200000000000001,-0.14400000000000002,0.0008377580409572784,0.00020943951023931972,-0.002513274122871835,-2.4939104487349875,1.4796351639892227,0.11573460980801423,-2.373968113854626,1.2224178735230162,24.200000000000003,0x0000,0x4056
103,5.156613344000107,adis16470,-0.02625,-0.045,0.9975,-0.25742456249999995,-0.44129925,9.782133375,-0.152,-0.28800000000000003,-0.24400000000000002,-0.0026529004630313807,-0.00502654824574367,-0.004258603374866165,-2.5031490105337646,1.466032722893694,0.10352092018805337,-2.583020668635057,1.5059048629705332,24.400000000000002,0x0000,0x4056
104,5.206670430000031,adis16470,-0.0225,-0.045,0.99875,-0.220649625,-0.44129925,9.7943916875,0.24800000000000003,-0.188,-0.04400000000000001,0.004328416544945938,-0.0032812189937493396,-0.0007679448708775052,-2.492516018810829,1.453274418354236,0.10131841170405181,-2.57979222205941,1.2892426812531277,24.1,0x0000,0x4056
105,5.2567266830001245,adis16470,-0.02375,-0.04,0.99375,-0.2329079375,-0.392266,9.7453584375,0.24800000000000003,0.01200000000000001,0.156,0.004328416544945938,0.00020943951023931972,0.002722713633111154,-2.4766000268150203,1.4521568956238158,0.10912719871605071,-2.305000904724289,1.3679651615572295,23.900000000000002,0x0000,0x4056
106,5.306784805000007,adis16470,-0.02625,-0.043750000000000004,0.9925,-0.25742456249999995,-0.4290409375,9.733100125,-0.05199999999999999,0.01200000000000001,0.055999999999999994,-0.0009075712110370513,0.00020943951023931972,0.0009773843811168245,-2.4800989621588228,1.453973586751379,0.11193045461205833,-2.5239986507368086,1.5135572650938998,23.900000000000002,0x0000,0x4056
107,5.3568410950001635,adis16470,-0.02625,-0.0475,1.0,-0.25742456249999995,-0.465815875,9.80665,0.048000000000000015,-0.488,-0.3440000000000001,0.0008377580409572784,-0.008517206749732328,-0.006003932626860495,-2.4825324591241427,1.4309948703406716,0.09471119955610624,-2.719505461272505,1.501976216500684,24.1,0x0000,0x4056
108,5.406898513999977,adis16470,-0.025,-0.03875,0.99875,-0.24516625,-0.38000768749999997,9.7943916875,0.24800000000000003,-0.28800000000000003,-0.14400000000000002,0.004328416544945938,-0.00502654824574367,-0.002513274122871835,-2.4651533294499974,1.4169029244817932,0.08750290717209276,-2.2218757604900237,1.4328102310300672,24.3,0x0000,0x4056
109,5.456954988000007,adis16470,-0.0225,-0.04,0.9975,-0.220649625,-0.392266,9.782133375,-0.352,-0.088,0.256,-0.00614355896702004,-0.00153588974175501,0.004468042885105484,-2.4790446528772656,1.4100705837433727,0.10031737424411398,-2.2963447818359826,1.2911295673051264,24.200000000000003,0x0000,0x4056
110,5.5070119320000686,adis16470,-0.02375,-0.0475,0.9975,-0.2329079375,-0.465815875,9.782133375,-0.05199999999999999,0.11200000000000002,-0.14400000000000002,-0.0009075712110370513,0.0019547687622336494,-0.002513274122871835,-2.486540873053755,1.414611090624921,0.09310919835614544,-2.7263109939062655,1.3623843356459906,24.3,0x0000,0x4056
111,5.557071121000035,adis16470,-0.02625,-0.045,0.995,-0.25742456249999995,-0.44129925,9.757616749999999,-0.252,0.01200000000000001,0.055999999999999994,-0.0043982297150257105,0.00020943951023931972,0.0009773843811168245,-2.5009629066801025,1.4171011559395041,0.09591255757215543,-2.589501847240921,1.5096790845859775,24.200000000000003,0x0000,0x4056
112,5.607130236000103,adis16470,-0.0275,-0.045,0.99875,-0.269682875,-0.44129925,9.7943916875,-0.05199999999999999,0.01200000000000001,0.055999999999999994,-0.0009075712110370513,0.00020943951023931972,0.0009773843811168245,-2.5050904846964004,1.4208600183799849,0.09871584516414617,-2.57979222205941,1.5756097582476423,24.1,0x0000,0x4056
113,5.6571876850000535,adis16470,-0.025,-0.04625,0.99625,-0.24516625,-0.45355756249999996,9.769875062499999,0.048000000000000015,-0.088,0.256,0.0008377580409572784,-0.00153588974175501,0.004468042885105484,-2.5057938995042845,1.4168446471945515,0.11153051882819448,-2.657996039379064,1.435938618637131,24.1,0x0000,0x4056
114,5.707245189000105,adis16470,-0.02625,-0.04625,0.99625,-0.25742456249999995,-0.45355756249999996,9.769875062499999,0.14800000000000002,0.01200000000000001,0.156,0.0025830872929516083,0.00020943951023931972,0.002722713633111154,-2.501577628754026,1.4192504923005804,0.11933946059218845,-2.657996039379064,1.5077031989240124,24.3,0x0000,0x4056
115,5.757302897000045,adis16470,-0.02625,-0.043750000000000004,0.9975,-0.25742456249999995,-0.4290409375,9.782133375,-0.05199999999999999,0.31200000000000006,0.055999999999999994,-0.0009075712110370513,0.005445427266222309,0.0009773843811168245,-2.504324295520523,1.4362909786596467,0.12214270674418451,-2.511363267163078,1.5059886107589662,24.1,0x0000,0x4056
116,5.807359882000128,adis16470,-0.02125,-0.04,0.99625,-0.2083913125,-0.392266,9.769875062499999,-0.152,0.01200000000000001,0.055999999999999994,-0.0026529004630313807,0.00020943951023931972,0.0009773843811168245,-2.5076787484469616,1.432572819276962,0.12494589482418353,-2.299222927202569,1.2209495346854202,23.900000000000002,0x0000,0x4056
117,5.857418535000079,adis16470,-0.025,-0.045,0.99625,-0.24516625,-0.44129925,9.769875062499999,-0.05199999999999999,0.01200000000000001,-0.04400000000000001,-0.0009075712110370513,0.00020943951023931972,-0.0007679448708775052,-2.5118013054713133,1.4332304709241346,0.12274331492818685,-2.586257200232757,1.436020924843635,24.1,0x0000,0x4056
118,5.907477113000141,adis16470,-0.02625,-0.043750000000000004,0.995,-0.25742456249999995,-0.4290409375,9.757616749999999,-0.05199999999999999,0.01200000000000001,-0.04400000000000001,-0.0009075712110370513,0.00020943951023931972,-0.0007679448708775052,-2.514469569619227,1.435349820303251,0.12054073507617971,-2.5176651159825814,1.5097634636758739,24.200000000000003,0x0000,0x4056
119,5.957532950000086,adis16470,-0.02625,-0.0425,1.0,-0.25742456249999995,-0.416782625,9.80665,-0.05199999999999999,0.01200000000000001,-0.14400000000000002,-0.0009075712110370513,0.00020943951023931972,-0.002513274122871835,-2.5154031466630036,1.437277747951885,0.11333269181218378,-2.4336061007201217,1.502313359406973,24.200000000000003,0x0000,0x4056
120,6.0075904909999736,adis16470,-0.025,-0.04125,0.99625,-0.24516625,-0.4045243125,9.769875062499999,0.048000000000000015,0.01200000000000001,-0.04400000000000001,0.0008377580409572784,0.00020943951023931972,-0.0007679448708775052,-2.5101602285918925,1.4378459590171033,0.1111301542881892,-2.370992885299152,1.4362543906648682,24.200000000000003,0x0000,0x4056
121,6.057648772999983,adis16470,-0.02625,-0.043750000000000004,1.00125,-0.25742456249999995,-0.4290409375,9.8189083125,-0.05199999999999999,-0.088,0.156,-0.0009075712110370513,-0.00153588974175501,0.002722713633111154,-2.512547377075269,1.434779252633631,0.11893923177220217,-2.501969387188487,1.5003615508118473,24.3,0x0000,0x4056
122,6.107705814000155,adis16470,-0.025,-0.0425,0.995,-0.24516625,-0.416782625,9.757616749999999,0.24800000000000003,0.01200000000000001,0.156,0.004328416544945938,0.00020943951023931972,0.002722713633111154,-2.499046970937424,1.4354319189528353,0.1267481331321978,-2.445820463302709,1.4379790173138596,24.200000000000003,0x0000,0x4056
123,6.157763466999995,adis16470,-0.0225,-0.045,0.9975,-0.220649625,-0.44129925,9.782133375,0.048000000000000015,-0.088,-0.14400000000000002,0.0008377580409572784,-0.00153588974175501,-0.002513274122871835,-2.49837173726897,1.4282234055818366,0.11953984449217747,-2.583020668635057,1.290854449123508,24.3,0x0000,0x4056
124,6.207821044999946,adis16470,-0.0225,-0.03875,0.9975,-0.220649625,-0.38000768749999997,9.782133375,-0.152,-0.188,0.156,-0.0026529004630313807,-0.0032812189937493396,0.002722713633111154,-2.5003540247457923,1.4162601955919856,0.1273488266601698,-2.2246572701664533,1.2911933146248324,24.200000000000003,0x0000,0x4056
125,6.257878937999976,adis16470,-0.025,-0.04125,0.99625,-0.24516625,-0.4045243125,9.769875062499999,0.14800000000000002,0.01200000000000001,-0.04400000000000001,0.0025830872929516083,0.00020943951023931972,-0.0007679448708775052,-2.4905064105226242,1.4172487598800028,0.12514628099617128,-2.370992885299152,1.4362543906648682,24.1,0x0000,0x4056
126,6.30793553400008,adis16470,-0.0275,-0.0425,0.995,-0.269682875,-0.416782625,9.757616749999999,-0.05199999999999999,-0.088,0.055999999999999994,-0.0009075712110370513,-0.00153588974175501,0.0009773843811168245,-2.492163576678621,1.4162210460041131,0.12794945143616585,-2.445820463302709,1.5817071899650958,24.1,0x0000,0x4056
127,6.357992464000063,adis16470,-0.0225,-0.04,0.9975,-0.220649625,-0.392266,9.782133375,-0.252,0.11200000000000002,0.156,-0.0043982297150257105,0.0019547687622336494,0.002722713633111154,-2.5006092236645334,1.4192134488224735,0.13575830942819445,-2.2963447818359826,1.2911295673051264,24.3,0x0000,0x4056
128,6.408048247000124,adis16470,-0.02625,-0.045,0.995,-0.25742456249999995,-0.44129925,9.757616749999999,-0.05199999999999999,0.01200000000000001,-0.14400000000000002,-0.0009075712110370513,0.00020943951023931972,-0.002513274122871835,-2.504937913130215,1.4216114162287021,0.12855029280421146,-2.589501847240921,1.5096790845859775,24.200000000000003,0x0000,0x4056
129,6.458105195000144,adis16470,-0.0225,-0.04,0.995,-0.220649625,-0.392266,9.757616749999999,0.14800000000000002,0.11200000000000002,0.055999999999999994,0.0025830872929516083,0.0019547687622336494,0.0009773843811168245,-2.4936210743220912,1.424560774083049,0.1313534767402161,-2.3021082924366265,1.2943672832175903,23.900000000000002,0x0000,0x4056
130,6.508162465000169,adis16470,-0.025,-0.03875,0.99625,-0.24516625,-0.38000768749999997,9.769875062499999,-0.05199999999999999,0.01200000000000001,0.256,-0.0009075712110370513,0.00020943951023931972,0.004468042885105484,-2.490848532520791,1.4253862190227509,0.14416837005221167,-2.227445749261137,1.4363988129921408,23.900000000000002,0x0000,0x4056
131,6.5582201839999925,adis16470,-0.02375,-0.045,0.9912500000000001,-0.2329079375,-0.44129925,9.7208418125,0.048000000000000015,-0.188,0.055999999999999994,0.0008377580409572784,-0.0032812189937493396,0.0009773843811168245,-2.4906625407662153,1.415078102603102,0.14697160438820536,-2.5992847869037305,1.371112446311275,24.200000000000003,0x0000,0x4056
132,6.608279680000123,adis16470,-0.0275,-0.045,0.9975,-0.269682875,-0.44129925,9.782133375,-0.152,0.01200000000000001,0.055999999999999994,-0.0026529004630313807,0.00020943951023931972,0.0009773843811168245,-2.499966629304738,1.4189168293096617,0.14977496002021506,-2.583020668635057,1.5775792037949872,24.3,0x0000,0x4056
133,6.658337214000085,adis16470,-0.02625,-0.04,0.99625,-0.25742456249999995,-0.392266,9.769875062499999,0.048000000000000015,0.21200000000000005,-0.04400000000000001,0.0008377580409572784,0.0037000980142279797,-0.0007679448708775052,-2.493597093269097,1.4311004845412518,0.1475724700602177,-2.299222927202569,1.508111733969786,24.1,0x0000,0x4056
134,6.70839719200012,adis16470,-0.025,-0.04125,1.0050000000000001,-0.24516625,-0.4045243125,9.85568325,-0.45199999999999996,-0.188,0.055999999999999994,-0.00788888821901437,-0.0032812189937493396,0.0009773843811168245,-2.512907190522781,1.4217309406341059,0.15037582983620904,-2.350373164548711,1.4237759723345358,24.3,0x0000,0x4056
135,6.7584543360001135,adis16470,-0.02375,-0.0425,0.99875,-0.2329079375,-0.416782625,9.7943916875,0.048000000000000015,0.31200000000000006,0.055999999999999994,0.0008377580409572784,0.005445427266222309,0.0009773843811168245,-2.5090273375186,1.4358215022765954,0.1531790133242184,-2.436648246810131,1.3609899305320146,24.1,0x0000,0x4056
136,6.808511055000054,adis16470,-0.02625,-0.043750000000000004,0.9975,-0.25742456249999995,-0.4290409375,9.782133375,0.048000000000000015,0.01200000000000001,-0.04400000000000001,0.0008377580409572784,0.00020943951023931972,-0.0007679448708775052,-2.506719386309249,1.437813511896803,0.15097651606021825,-2.511363267163078,1.5059886107589662,24.1,0x0000,0x4056
137,6.858567625999967,adis16470,-0.02625,-0.0425,1.0,-0.25742456249999995,-0.416782625,9.80665,-0.05199999999999999,0.01200000000000001,0.055999999999999994,-0.0009075712110370513,0.00020943951023931972,0.0009773843811168245,-2.507808014768738,1.4396921767326842,0.15377969646820927,-2.4336061007201217,1.502313359406973,24.200000000000003,0x0000,0x4056
138,6.908625123000093,adis16470,-0.02625,-0.0425,0.9925,-0.25742456249999995,-0.416782625,9.733100125,0.14800000000000002,0.01200000000000001,-0.14400000000000002,0.0025830872929516083,0.00020943951023931972,-0.002513274122871835,-2.4994309839498134,1.4417598078125378,0.1465714115721821,-2.4519737103918633,1.513639900733258,24.1,0x0000,0x4056
139,6.958682451999948,adis16470,-0.0275,-0.0425,0.99375,-0.269682875,-0.416782625,9.7453584375,-0.05199999999999999,-0.088,0.055999999999999994,-0.0009075712110370513,-0.00153588974175501,0.0009773843811168245,-2.5009711351514063,1.4402815354894107,0.14937460542017103,-2.448893223945978,1.5836921179513255,24.3,0x0000,0x4056
140,7.008738782000137,adis16470,-0.02625,-0.043750000000000004,1.0,-0.25742456249999995,-0.4290409375,9.80665,-0.152,0.01200000000000001,0.156,-0.0026529004630313807,0.00020943951023931972,0.002722713633111154,-2.5085099994396316,1.4421092215761306,0.15718343346019717,-2.5050928672413995,1.5022325649053159,24.200000000000003,0x0000,0x4056
141,7.058795963999955,adis16470,-0.0275,-0.04125,0.99875,-0.269682875,-0.4045243125,9.7943916875,-0.05199999999999999,-0.188,0.055999999999999994,-0.0009075712110370513,-0.0032812189937493396,0.0009773843811168245,-2.5081919976937894,1.4355618318759227,0.15998662422819324,-2.3650647322036913,1.575864617901093,24.8,0x0000,0x4056
142,7.1088520350001545,adis16470,-0.0225,-0.04625,0.9925,-0.220649625,-0.45355756249999996,9.733100125,-0.05199999999999999,0.01200000000000001,0.156,-0.0009075712110370513,0.00020943951023931972,0.002722713633111154,-2.5139394966386654,1.4333845942933694,0.16779535383219626,-2.668024361405546,1.297267048856247,24.200000000000003,0x0000,0x4056
143,7.1589075500000945,adis16470,-0.025,-0.0425,0.99625,-0.24516625,-0.416782625,9.769875062499999,0.14800000000000002,0.11200000000000002,-0.04400000000000001,0.0025830872929516083,0.0019547687622336494,-0.0007679448708775052,-2.505255811097641,1.438934535423224,0.16559292582419402,-2.4427553994518125,1.436178811969814,24.1,0x0000,0x4056
144,7.208963564999976,adis16470,-0.0275,-0.045,0.9975,-0.269682875,-0.44129925,9.782133375,0.14800000000000002,-0.088,0.055999999999999994,0.0025830872929516083,-0.00153588974175501,0.0009773843811168245,-2.4995509568553547,1.4373905820164223,0.16839607308019186,-2.583020668635057,1.5775792037949872,24.3,0x0000,0x4056
145,7.259019766000165,adis16470,-0.0275,-0.03875,0.99625,-0.269682875,-0.38000768749999997,9.769875062499999,0.048000000000000015,-0.088,0.256,0.0008377580409572784,-0.00153588974175501,0.004468042885105484,-2.4917542046807553,1.4359252995638734,0.1812104840881657,-2.227445749261137,1.5799691948045353,24.200000000000003,0x0000,0x4056
146,7.309076318000052,adis16470,-0.02,-0.0425,0.99875,-0.196133,-0.416782625,9.7943916875,0.14800000000000002,0.01200000000000001,0.156,0.0025830872929516083,0.00020943951023931972,0.002722713633111154,-2.4833918832212465,1.4307186482180048,0.1890193062001836,-2.436648246810131,1.1461594796943742,24.3,0x0000,0x4056
147,7.359133111000119,adis16470,-0.025,-0.04,0.995,-0.24516625,-0.392266,9.757616749999999,-0.252,0.11200000000000002,0.156,-0.0043982297150257105,0.0019547687622336494,0.002722713633111154,-2.4921282871377057,1.436361100949812,0.1968281975761784,-2.3021082924366265,1.4381284907605576,23.8,0x0000,0x4056
148,7.409191236999959,adis16470,-0.02375,-0.04125,0.9975,-0.2329079375,-0.4045243125,9.782133375,-0.05199999999999999,0.01200000000000001,0.055999999999999994,-0.0009075712110370513,0.00020943951023931972,0.0009773843811168245,-2.492197181739087,1.435477826359099,0.19963144848817505,-2.368025100710918,1.3627632368381979,24.200000000000003,0x0000,0x4056
149,7.459249732999979,adis16470,-0.02,-0.04625,0.995,-0.196133,-0.45355756249999996,9.757616749999999,-0.252,-0.088,-0.14400000000000002,-0.0043982297150257105,-0.00153588974175501,-0.002513274122871835,-2.507942338862521,1.4254567540117207,0.1924229982801608,-2.6613304325735614,1.1502772457746153,24.200000000000003,0x0000,0x4056
150,7.509307848000162,adis16470,-0.02875,-0.043750000000000004,0.995,-0.2819411875,-0.4290409375,9.757616749999999,0.048000000000000015,0.01200000000000001,-0.04400000000000001,0.0008377580409572784,0.00020943951023931972,-0.0007679448708775052,-2.505782025865729,1.4306057932446221,0.1902204086601669,-2.5176651159825814,1.6534741089168739,24.3,0x0000,0x4056
151,7.559366337000029,adis16470,-0.02375,-0.0425,0.99625,-0.2329079375,-0.416782625,9.769875062499999,-0.352,0.01200000000000001,0.055999999999999994,-0.00614355896702004,0.00020943951023931972,0.0009773843811168245,-2.5217894461688544,1.4298703121756493,0.19302364775617392,-2.4427553994518125,1.3643977292879048,23.900000000000002,0x0000,0x4056
152,7.609422493000011,adis16470,-0.025,-0.0425,0.99875,-0.24516625,-0.416782625,9.7943916875,-0.152,-0.088,0.055999999999999994,-0.0026529004630313807,-0.00153588974175501,0.0009773843811168245,-2.5275429953722184,1.425607895786297,0.19582679557216584,-2.436648246810131,1.4325918745394013,24.3,0x0000,0x4056
153,7.65948005600012,adis16470,-0.02,-0.043750000000000004,0.99625,-0.196133,-0.4290409375,9.769875062499999,-0.252,0.11200000000000002,0.156,-0.0043982297150257105,0.0019547687622336494,0.002722713633111154,-2.5396445608295553,1.42556940617427,0.20363577836418703,-2.514510245701381,1.1489674051682002,24.1,0x0000,0x4056
154,7.709536341000103,adis16470,-0.02375,-0.043750000000000004,0.99375,-0.2329079375,-0.4290409375,9.7453584375,0.048000000000000015,0.11200000000000002,-0.24400000000000002,0.0008377580409572784,0.0019547687622336494,-0.004258603374866165,-2.536913596631805,1.4299071198420568,0.19142213046817327,-2.520827907710173,1.367748123771292,24.3,0x0000,0x4056
155,7.7595931450000535,adis16470,-0.02375,-0.045,1.0,-0.2329079375,-0.44129925,9.80665,0.14800000000000002,0.01200000000000001,-0.04400000000000001,0.0025830872929516083,0.00020943951023931972,-0.0007679448708775052,-2.530446522597431,1.429080526954118,0.189219631136175,-2.5765718302688305,1.3591440752811383,23.900000000000002,0x0000,0x4056
156,7.809649467000099,adis16470,-0.025,-0.043750000000000004,1.0,-0.24516625,-0.4290409375,9.80665,-0.352,0.01200000000000001,0.055999999999999994,-0.00614355896702004,0.00020943951023931972,0.0009773843811168245,-2.5472069552534973,1.4297021445213975,0.1920227976561728,-2.5050928672413995,1.4307281568581158,24.3,0x0000,0x4056
157,7.85970627100005,adis16470,-0.025,-0.0475,1.0,-0.24516625,-0.465815875,9.80665,0.048000000000000015,0.01200000000000001,0.156,0.0008377580409572784,0.00020943951023931972,0.002722713633111154,-2.5482982637565965,1.4303064470337365,0.19983162444817665,-2.719505461272505,1.4304839999223395,24.200000000000003,0x0000,0x4056
158,7.909763131000091,adis16470,-0.02625,-0.043750000000000004,1.0,-0.25742456249999995,-0.4290409375,9.80665,-0.152,-0.088,-0.04400000000000001,-0.0026529004630313807,-0.00153588974175501,-0.0007679448708775052,-2.5548906586120492,1.42742804672573,0.19762911288417764,-2.5050928672413995,1.5022325649053159,24.3,0x0000,0x4056
159,7.959819583000126,adis16470,-0.03,-0.04125,0.995,-0.29419949999999995,-0.4045243125,9.757616749999999,0.048000000000000015,-0.188,0.156,0.0008377580409572784,-0.0032812189937493396,0.002722713633111154,-2.54891756529194,1.4241672655850286,0.20543787602818067,-2.373968113854626,1.7255064645788247,24.1,0x0000,0x4056
160,8.009878200999992,adis16470,-0.0225,-0.04,0.995,-0.220649625,-0.392266,9.757616749999999,-0.05199999999999999,-0.088,-0.04400000000000001,-0.0009075712110370513,-0.00153588974175501,-0.0007679448708775052,-2.546532385914275,1.4172541787263169,0.2032352805121791,-2.3021082924366265,1.2943672832175903,24.3,0x0000,0x4056
161,8.059936246000007,adis16470,-0.0225,-0.04125,0.9975,-0.220649625,-0.4045243125,9.782133375,-0.252,-0.188,-0.04400000000000001,-0.0043982297150257105,-0.0032812189937493396,-0.0007679448708775052,-2.555324538453325,1.4055077043316355,0.20103273304417962,-2.368025100710918,1.2910638061561284,24.200000000000003,0x0000,0x4056
162,8.109995105000053,adis16470,-0.0225,-0.0425,0.9925,-0.220649625,-0.416782625,9.733100125,0.048000000000000015,0.01200000000000001,0.055999999999999994,0.0008377580409572784,0.00020943951023931972,0.0009773843811168245,-2.550902748837057,1.4039359575645194,0.20383603430017866,-2.4519737103918633,1.2974857027878308,24.3,0x0000,0x4056
163,8.160051909000003,adis16470,-0.0275,-0.0425,0.9975,-0.269682875,-0.416782625,9.782133375,-0.252,0.21200000000000005,0.156,-0.0043982297150257105,0.0037000980142279797,0.002722713633111154,-2.5610406321138486,1.4178120419629288,0.21164486405618663,-2.4396980035280196,1.5777522062964544,23.700000000000003,0x0000,0x4056
164,8.210108138000123,adis16470,-0.02625,-0.04625,0.99375,-0.25742456249999995,-0.45355756249999996,9.7453584375,-0.05199999999999999,0.01200000000000001,-0.14400000000000002,-0.0009075712110370513,0.00020943951023931972,-0.002513274122871835,-2.5656641356241834,1.4202741837647825,0.2044368043762006,-2.664673196070845,1.5114862216956642,24.1,0x0000,0x4056
165,8.26016433100017,adis16470,-0.02625,-0.04125,0.99625,-0.25742456249999995,-0.4045243125,9.769875062499999,-0.05199999999999999,-0.28800000000000003,0.055999999999999994,-0.0009075712110370513,-0.00502654824574367,0.0009773843811168245,-2.5643215732447238,1.4079015403038901,0.2072399501202017,-2.370992885299152,1.5080347382084442,24.3,0x0000,0x4056
166,8.310220264999998,adis16470,-0.0225,-0.0425,0.9975,-0.220649625,-0.416782625,9.782133375,-0.152,0.11200000000000002,0.055999999999999994,-0.0026529004630313807,0.0019547687622336494,0.0009773843811168245,-2.5692854310977524,1.411057567480031,0.21004308141620276,-2.4396980035280196,1.2909960321028293,24.3,0x0000,0x4056
167,8.36027673500007,adis16470,-0.02,-0.045,0.9975,-0.196133,-0.44129925,9.782133375,0.048000000000000015,-0.188,-0.24400000000000002,0.0008377580409572784,-0.0032812189937493396,-0.004258603374866165,-2.5672054786059446,1.3965633470108634,0.19782929810023414,-2.583020668635057,1.1474669206884645,24.3,0x0000,0x4056
168,8.410332410000137,adis16470,-0.02125,-0.043750000000000004,0.99375,-0.2083913125,-0.4290409375,9.7453584375,0.048000000000000015,0.01200000000000001,-0.04400000000000001,0.0008377580409572784,0.00020943951023931972,-0.0007679448708775052,-2.563923315244987,1.3936971530171478,0.1956268549562319,-2.520827907710173,1.2238209980370542,24.1,0x0000,0x4056
169,8.460389084000099,adis16470,-0.02875,-0.0425,0.99875,-0.2819411875,-0.416782625,9.7943916875,0.048000000000000015,0.11200000000000002,0.156,0.0008377580409572784,0.0019547687622336494,0.002722713633111154,-2.5590231209303687,1.4042648927440111,0.2034357856442366,-2.436648246810131,1.6473699623361524,24.3,0x0000,0x4056
170,8.51044815399996,adis16470,-0.02875,-0.04625,1.0,-0.2819411875,-0.45355756249999996,9.80665,0.14800000000000002,0.11200000000000002,0.055999999999999994,0.0025830872929516083,0.0019547687622336494,0.0009773843811168245,-2.5535429328826917,1.4145749389506783,0.2062390987722374,-2.6480427686226156,1.645042516533288,24.200000000000003,0x0000,0x4056
171,8.560506043000032,adis16470,-0.02375,-0.03875,0.995,-0.2329079375,-0.38000768749999997,9.757616749999999,-0.05199999999999999,0.01200000000000001,0.055999999999999994,-0.0009075712110370513,0.00020943951023931972,0.0009773843811168245,-2.5496278392496734,1.4141984753616883,0.20904233014023701,-2.230241223987788,1.3663178301371717,24.8,0x0000,0x4056
172,8.610562912999967,adis16470,-0.02125,-0.04125,0.99625,-0.2083913125,-0.4045243125,9.769875062499999,-0.05199999999999999,0.11200000000000002,-0.14400000000000002,-0.0009075712110370513,0.0019547687622336494,-0.002513274122871835,-2.548606028838267,1.4158264713980606,0.2018341675002266,-2.370992885299152,1.2208871898999032,24.3,0x0000,0x4056
173,8.66061978300013,adis16470,-0.02125,-0.04625,0.995,-0.2083913125,-0.45355756249999996,9.757616749999999,-0.05199999999999999,0.11200000000000002,0.156,-0.0009075712110370513,0.0019547687622336494,0.002722713633111154,-2.5534114301432917,1.4174471848149865,0.20964308555222302,-2.6613304325735614,1.2221484097484778,24.3,0x0000,0x4056
174,8.710676894000017,adis16470,-0.02375,-0.045,0.99875,-0.2329079375,-0.44129925,9.7943916875,-0.152,0.01200000000000001,0.256,-0.0026529004630313807,0.00020943951023931972,0.004468042885105484,-2.5613955173368046,1.4169037309020718,0.22245764427220635,-2.57979222205941,1.3608410496092924,23.900000000000002,0x0000,0x4056
175,8.760733598000115,adis16470,-0.02375,-0.0425,0.9975,-0.2329079375,-0.416782625,9.782133375,-0.152,0.01200000000000001,0.055999999999999994,-0.0026529004630313807,0.00020943951023931972,0.0009773843811168245,-2.5664180026654244,1.4164081562869635,0.22526081555220479,-2.4396980035280196,1.3626917017066766,24.1,0x0000,0x4056
176,8.810790746000066,adis16470,-0.02375,-0.04,0.99375,-0.2329079375,-0.392266,9.7453584375,-0.252,0.01200000000000001,0.156,-0.0043982297150257105,0.00020943951023931972,0.002722713633111154,-2.5735517739766696,1.4160279684528483,0.2330697306401971,-2.305000904724289,1.3679651615572295,24.3,0x0000,0x4056
177,8.860847394000075,adis16470,-0.025,-0.04125,0.99375,-0.24516625,-0.4045243125,9.7453584375,0.048000000000000015,0.11200000000000002,-0.14400000000000002,0.0008377580409572784,0.0019547687622336494,-0.002513274122871835,-2.567265081360881,1.4219988447842815,0.22586154668818287,-2.37695081440348,1.4398598855199656,23.900000000000002,0x0000,0x4056
178,8.910904172000073,adis16470,-0.025,-0.0425,0.9975,-0.24516625,-0.416782625,9.782133375,0.048000000000000015,0.01200000000000001,0.256,0.0008377580409572784,0.00020943951023931972,0.004468042885105484,-2.562359077669508,1.4228351954885643,0.23867603449615943,-2.4396980035280196,1.4343831033144696,24.1,0x0000,0x4056
179,8.960960709000119,adis16470,-0.0225,-0.04125,0.99625,-0.220649625,-0.4045243125,9.769875062499999,0.24800000000000003,0.01200000000000001,-0.24400000000000002,0.004328416544945938,0.00020943951023931972,-0.004258603374866165,-2.5463660266798165,1.4208207636255832,0.22646225313211468,-2.370992885299152,1.2926803915114013,24.1,0x0000,0x4056
180,9.011017431000027,adis16470,-0.0225,-0.04625,0.995,-0.220649625,-0.45355756249999996,9.757616749999999,-0.152,-0.088,0.356,-0.0026529004630313807,-0.00153588974175501,0.006213372137099813,-2.5561217806413525,1.4139677616205482,0.2442824856800689,-2.6613304325735614,1.2940157272692785,24.200000000000003,0x0000,0x4056
181,9.061077096999952,adis16470,-0.0225,-0.04125,0.98875,-0.220649625,-0.4045243125,9.6963251875,-0.152,0.01200000000000001,-0.14400000000000002,-0.0026529004630313807,0.00020943951023931972,-0.002513274122871835,-2.560235417838318,1.4123264212348503,0.23707384841606835,-2.3889569020015946,1.3024654735076464,24.1,0x0000,0x4056
182,9.111133615999961,adis16470,-0.02375,-0.043750000000000004,0.99625,-0.2329079375,-0.4290409375,9.769875062499999,0.048000000000000015,-0.088,-0.04400000000000001,0.0008377580409572784,-0.00153588974175501,-0.0007679448708775052,-2.5569662748870994,1.4070495295826566,0.23487137948806866,-2.514510245701381,1.3643237935691321,24.400000000000002,0x0000,0x4056
183,9.161189985999954,adis16470,-0.02375,-0.045,0.99625,-0.2329079375,-0.44129925,9.769875062499999,-0.152,-0.088,0.055999999999999994,-0.0026529004630313807,-0.00153588974175501,0.0009773843811168245,-2.5650084737346566,1.4018766417614783,0.23767452999207034,-2.586257200232757,1.364247727331862,24.1,0x0000,0x4056
184,9.211246096999957,adis16470,-0.02375,-0.04,0.99875,-0.2329079375,-0.392266,9.7943916875,-0.252,-0.188,0.055999999999999994,-0.0043982297150257105,-0.0032812189937493396,0.0009773843811168245,-2.571939656293325,1.3918393643765947,0.24047767635207765,-2.293473829286471,1.3611303487385067,24.1,0x0000,0x4056
185,9.26130244900014,adis16470,-0.0225,-0.043750000000000004,0.99625,-0.220649625,-0.4290409375,9.769875062499999,-0.05199999999999999,0.01200000000000001,-0.04400000000000001,-0.0009075712110370513,0.00020943951023931972,-0.0007679448708775052,-2.573341941664915,1.3904420865063107,0.23827519523608678,-2.514510245701381,1.2925423141305157,24.200000000000003,0x0000,0x4056
186,9.311358430000155,adis16470,-0.02125,-0.04625,0.99625,-0.2083913125,-0.45355756249999996,9.769875062499999,0.14800000000000002,-0.088,0.156,0.0025830872929516083,-0.00153588974175501,0.002722713633111154,-2.56777492560088,1.382728804475972,0.24608390518408485,-2.657996039379064,1.2206187368853283,24.1,0x0000,0x4056
187,9.36141459700002,adis16470,-0.0225,-0.043750000000000004,0.99625,-0.220649625,-0.4290409375,9.769875062499999,-0.252,-0.188,-0.04400000000000001,-0.0043982297150257105,-0.0032812189937493396,-0.0007679448708775052,-2.579071530417784,1.3717027060103326,0.24388142895208237,-2.514510245701381,1.2925423141305157,24.3,0x0000,0x4056
188,9.411470670999961,adis16470,-0.02375,-0.04625,0.995,-0.2329079375,-0.45355756249999996,9.757616749999999,0.048000000000000015,-0.088,-0.14400000000000002,0.0008377580409572784,-0.00153588974175501,-0.002513274122871835,-2.5783620751146588,1.3672694035391608,0.23667336768808034,-2.6613304325735614,1.3658789725238016,23.900000000000002,0x0000,0x4056
189,9.461526486000139,adis16470,-0.02375,-0.04,0.995,-0.2329079375,-0.392266,9.757616749999999,-0.05199999999999999,0.11200000000000002,-0.04400000000000001,-0.0009075712110370513,0.0019547687622336494,-0.0007679448708775052,-2.5753878551066234,1.3727431668443422,0.23447090206007576,-2.3021082924366265,1.366250037741653,24.1,0x0000,0x4056
190,9.511583734000169,adis16470,-0.02375,-0.043750000000000004,0.9925,-0.2329079375,-0.4290409375,9.733100125,-0.05199999999999999,-0.088,-0.14400000000000002,-0.0009075712110370513,-0.00153588974175501,-0.002513274122871835,-2.5769109836889803,1.3683607090848482,0.22726267159609503,-2.5239986507368086,1.3694667355410675,24.3,0x0000,0x4056
191,9.561641392999945,adis16470,-0.025,-0.03875,0.9925,-0.24516625,-0.38000768749999997,9.733100125,-0.05199999999999999,0.11200000000000002,-0.04400000000000001,-0.0009075712110370513,0.0019547687622336494,-0.0007679448708775052,-2.57264081477285,1.3753242347756565,0.2250600939000951,-2.235853265850471,1.4418154846332683,24.200000000000003,0x0000,0x4056
192,9.611697904000039,adis16470,-0.02125,-0.04125,0.9975,-0.2083913125,-0.4045243125,9.782133375,-0.352,0.21200000000000005,-0.04400000000000001,-0.00614355896702004,0.0037000980142279797,-0.0007679448708775052,-2.585815681647498,1.3826045089872896,0.22285764732408914,-2.368025100710918,1.2193603310039023,24.200000000000003,0x0000,0x4056
193,9.6617551920001,adis16470,-0.02375,-0.045,0.99875,-0.2329079375,-0.44129925,9.7943916875,-0.05199999999999999,-0.088,0.156,-0.0009075712110370513,-0.00153588974175501,0.002722713633111154,-2.588246145101819,1.3778522768602062,0.2306666248120955,-2.57979222205941,1.3608410496092924,24.1,0x0000,0x4056
194,9.71181179500013,adis16470,-0.02375,-0.04625,0.9975,-0.2329079375,-0.45355756249999996,9.782133375,0.048000000000000015,-0.088,0.055999999999999994,0.0008377580409572784,-0.00153588974175501,0.0009773843811168245,-2.5872199706335137,1.3732276578413634,0.2334697810840871,-2.6546699851102225,1.362464358861409,24.200000000000003,0x0000,0x4056
195,9.761869269000044,adis16470,-0.025,-0.04625,0.9975,-0.24516625,-0.45355756249999996,9.782133375,0.048000000000000015,0.01200000000000001,0.156,0.0008377580409572784,0.00020943951023931972,0.002722713633111154,-2.5862142647118476,1.3750346574308194,0.2412787557640877,-2.6546699851102225,1.434143809674166,24.200000000000003,0x0000,0x4056
196,9.811925910000127,adis16470,-0.025,-0.04625,0.995,-0.24516625,-0.45355756249999996,9.757616749999999,-0.05199999999999999,-0.088,0.156,-0.0009075712110370513,-0.00153588974175501,0.002722713633111154,-2.5902674687869287,1.3719718476167453,0.24908757428810804,-2.6613304325735614,1.4377379197756714,24.3,0x0000,0x4056
197,9.861982660999956,adis16470,-0.02375,-0.043750000000000004,0.995,-0.2329079375,-0.4290409375,9.757616749999999,0.14800000000000002,0.01200000000000001,-0.04400000000000001,0.0025830872929516083,0.00020943951023931972,-0.0007679448708775052,-2.5815552039094976,1.3724417532773476,0.24688508129211278,-2.5176651159825814,1.3660338151549165,24.3,0x0000,0x4056
198,9.912039690000029,adis16470,-0.02625,-0.043750000000000004,0.99875,-0.25742456249999995,-0.4290409375,9.7943916875,0.048000000000000015,0.01200000000000001,0.156,0.0008377580409572784,0.00020943951023931972,0.002722713633111154,-2.577733894981954,1.3756637550928834,0.2546939951321183,-2.508224150812405,1.5041082457341115,24.1,0x0000,0x4056
199,9.962096553000038,adis16470,-0.02375,-0.0475,0.9975,-0.2329079375,-0.465815875,9.782133375,-0.252,0.11200000000000002,0.156,-0.0043982297150257105,0.0019547687622336494,0.002722713633111154,-2.593067470709387,1.3808924039256996,0.2625028599881098,-2.7263109939062655,1.3623843356459906,24.3,0x0000,0x4056
