sample,time_s,sensor,accel_x_g,accel_y_g,accel_z_g,accel_x_mps2,accel_y_mps2,accel_z_mps2,gyro_x_dps,gyro_y_dps,gyro_z_dps,gyro_x_radps,gyro_y_radps,gyro_z_radps,roll_deg,pitch_deg,yaw_deg,accel_roll_deg,accel_pitch_deg,temp_c,diag_stat,prod_id
0,0.0002397680000285618,adis16470,0.0,0.0,0.0,0.0,0.0,0.0,0.024000000000000007,0.015000000000000003,0.21500000000000027,0.0004188790204786392,0.00026179938779914946,0.003752457891787813,0.0,-0.0,0.0,0.0,-0.0,0.0,0x0000,0x0000
1,0.03518721299997196,adis16470,0.0,0.0,0.0,0.0,0.0,0.0,0.024000000000000007,0.015000000000000003,0.21500000000000027,0.0004188790204786392,0.00026179938779914946,0.003752457891787813,0.000821926439039162,0.0005137040243994762,0.007513358179992347,0.0,-0.0,0.0,0x0000,0x0000
2,0.07008995599971968,adis16470,0.0,0.0,0.0,0.0,0.0,0.0,0.024000000000000007,0.015000000000000003,0.21500000000000027,0.0004188790204786392,0.00026179938779914946,0.003752457891787813,0.0016263725544184116,0.001016482846511507,0.015017193149992655,0.0,-0.0,0.0,0x0000,0x0000
3,0.10491371999978583,adis16470,0.0,0.0,0.0,0.0,0.0,0.0,0.024000000000000007,0.015000000000000003,0.21500000000000027,0.0004188790204786392,0.00026179938779914946,0.003752457891787813,0.0024129009263728434,0.0015080630789830265,0.022504310580018255,0.0,-0.0,0.0,0x0000,0x0000
4,0.1397917240001334,adis16470,0.0,0.00625,1.00625,0.0,0.0612915625,9.8679415625,0.024000000000000007,0.015000000000000003,0.21500000000000027,0.0004188790204786392,0.00026179938779914946,0.003752457891787813,0.010302371021082184,0.0019906090054028786,0.03000308918001114,0.3558698306218785,-0.0,24.3,0x0000,0x0000
5,0.174676264000027,adis16470,0.0,0.00875,0.99875,0.0,0.08580818750000001,9.7943916875,0.22400000000000003,-0.185,-25.585,0.003909537524467299,-0.0032288591161895096,-0.44654248912274924,0.027793239655196533,-0.004373776984797394,-0.8625188133638904,0.5019526855752704,-0.0,24.3,0x0000,0x4056
6,0.20952363900005366,adis16470,0.0025,0.005,1.0050000000000001,0.024516625,0.04903325,9.85568325,0.12400000000000001,0.115,-11.185,0.002164208272472969,0.002007128639793479,-0.19521507683556577,0.037173026446341365,-0.0032095224393534436,-1.2522842196700164,0.28505127758382637,-0.14252475686816699,24.3,0x0000,0x4056
7,0.24436745799994242,adis16470,-0.0025,0.00875,1.0025,-0.024516625,0.08580818750000001,9.831166624999998,0.12400000000000001,0.115,-0.08499999999999977,0.002164208272472969,0.002007128639793479,-0.001483529864195176,0.050665289854445156,0.003639096508072633,-1.2552459442850068,0.5000751526082065,0.14287650486757714,24.6,0x0000,0x4056
8,0.279229444000066,adis16470,-0.00625,0.00875,1.0,-0.0612915625,0.08580818750000001,9.80665,0.12400000000000001,0.115,0.3150000000000003,0.002164208272472969,0.002007128639793479,0.005497787143782143,0.0639149181313281,0.014656865443789701,-1.2442644186949678,0.5013252767618416,0.35808025218322936,24.3,0x0000,0x4056
9,0.3140946509997775,adis16470,-0.00625,0.01125,1.00375,-0.0612915625,0.1103248125,9.843424937499998,-0.076,0.115,0.11500000000000027,-0.0013264502315156904,0.002007128639793479,0.0020071286397934838,0.07288271042970312,0.025427710006979215,-1.2402549219599792,0.6421424968857137,0.3567337535888179,24.400000000000002,0x0000,0x4056
10,0.34892598999977054,adis16470,-0.005,0.005,1.00125,-0.04903325,0.04903325,9.8189083125,-0.076,0.015000000000000003,0.5150000000000003,-0.0013264502315156904,0.00026179938779914946,0.008988445647770803,0.07455319276409353,0.03115348302362333,-1.2223167638349446,0.28611886764947253,0.2861153002141356,24.3,0x0000,0x4056
11,0.3837587539997003,adis16470,0.0,0.01,1.00375,0.0,0.0980665,9.843424937499998,-0.076,0.21500000000000002,0.21500000000000027,-0.0013264502315156904,0.003752457891787809,0.003752457891787813,0.08188375291283373,0.03786967294537617,-1.2148277234449187,0.5707983463055499,-0.0,24.1,0x0000,0x4056
12,0.41860720299973764,adis16470,-0.00625,0.00625,1.00125,-0.0612915625,0.0612915625,9.8189083125,-0.076,0.015000000000000003,-2.385,-0.0013264502315156904,0.00026179938779914946,-0.04162610266006476,0.08480350361940758,0.04477735058360028,-1.2979412743100078,0.3576469123176653,0.357639944841554,24.3,0x0000,0x4056
13,0.4534473190001336,adis16470,0.0,0.01625,1.00125,0.0,0.1593580625,9.8189083125,-0.176,0.015000000000000003,-3.685,-0.00307177948351002,0.00026179938779914946,-0.06431538293599104,0.09569446177642861,0.044393953012523524,-1.426327035438817,0.9298124166196705,-0.0,24.200000000000003,0x0000,0x4056
14,0.4882605469997543,adis16470,0.0,0.00125,1.0,0.0,0.0122583125,9.80665,-0.076,0.015000000000000003,-7.385000000000001,-0.0013264502315156904,0.00026179938779914946,-0.12889256525978124,0.09262008257277284,0.044017827316072296,-1.683422177728437,0.07161968708944809,-0.0,24.3,0x0000,0x4056
15,0.5230626649999977,adis16470,-0.0025,0.005,1.0025,-0.024516625,0.04903325,9.831166624999998,-0.276,0.21500000000000002,-12.885000000000002,-0.00481710873550435,0.003752457891787809,-0.2248856741194694,0.08706966666817371,0.05332786462788277,-2.131846501785074,0.2857621168765344,0.14288016990025768,24.1,0x0000,0x4056
16,0.5578553760001341,adis16470,0.0025,0.0,1.0025,0.024516625,0.0,9.831166624999998,-0.476,-0.28500000000000003,-29.285,-0.008307767239493008,-0.004974188368183839,-0.5111196714465394,0.0690981606444403,0.03968605890659656,-3.1507515998331863,0.0,-0.142881946987328,24.400000000000002,0x0000,0x4056
17,0.5926580119999016,adis16470,-0.00375,-0.0025,1.00375,-0.03677493749999999,-0.024516625,9.843424937499998,-0.276,-0.085,-24.085,-0.00481710873550435,-0.0014835298641951802,-0.42036255034283426,0.05544871534211761,0.0402743788468428,-3.9889717391418507,-0.142704012546829,0.21405480162040708,24.400000000000002,0x0000,0x4056
18,0.6274670359998709,adis16470,-0.0025,-0.0025,1.0,-0.024516625,-0.024516625,9.80665,-0.076,0.31500000000000006,-8.985000000000001,-0.0013264502315156904,0.0054977871437821395,-0.15681783329169052,0.04888238326105111,0.05307920547701332,-4.301730658049198,-0.14323915036830656,0.14323870274992495,24.3,0x0000,0x4056
19,0.6622754869999881,adis16470,0.0,0.045,1.0025,0.0,0.44129925,9.831166624999998,-0.176,0.015000000000000003,-0.08499999999999977,-0.00307177948351002,0.00026179938779914946,-0.001483529864195176,0.09330407250717346,0.052529305876471824,-4.304689377999191,2.570155090846444,-0.0,24.3,0x0000,0x4056
20,0.6971048069999597,adis16470,0.01125,0.005,0.99875,0.1103248125,0.04903325,9.7943916875,0.12400000000000001,0.21500000000000002,-8.085,0.002164208272472969,0.003752457891787809,-0.14110987002374156,0.10140717565415935,0.0459103228503192,-4.586286071454988,0.28683504810786925,-0.6453488702371972,24.3,0x0000,0x4056
21,0.7319369789997836,adis16470,0.0075,-0.0025,1.0050000000000001,0.07354987499999999,-0.024516625,9.85568325,-0.376,0.21500000000000002,-12.985000000000001,-0.006562437987498679,0.003752457891787809,-0.22663100337146372,0.08369354962061942,0.043779827561382434,-5.0385815911451735,-0.14252652072657387,-0.4275711839866693,24.3,0x0000,0x4056
22,0.76676472500003,adis16470,-0.00625,0.0075,0.9975,-0.0612915625,0.07354987499999999,9.782133375,0.024000000000000007,-0.28500000000000003,-4.785,0.0004188790204786392,-0.004974188368183839,-0.08351400470792868,0.09145457197766092,0.04035646188190932,-5.205232441885442,0.43078721700862843,0.3589812678485091,24.3,0x0000,0x4056
23,0.8015788610000527,adis16470,-0.00875,0.00125,0.99875,-0.08580818750000001,0.0122583125,9.7943916875,-0.676,0.015000000000000003,-3.485,-0.011798425743481668,0.00026179938779914946,-0.06082472443200238,0.0679960101183382,0.05010014602813615,-5.326559643116184,0.0717093236505815,0.5019522924630939,24.1,0x0000,0x4056
24,0.8364461950000077,adis16470,-0.00125,0.0075,1.00125,-0.0122583125,0.07354987499999999,9.8189083125,-0.276,0.015000000000000003,0.21500000000000027,-0.00481710873550435,0.00026179938779914946,0.003752457891787813,0.06578862023650066,0.05104125990221341,-5.319063142441251,0.42917384220227756,0.07152826765722609,24.200000000000003,0x0000,0x4056
25,0.8712598639999669,adis16470,0.0,0.005,1.0025,0.0,0.04903325,9.831166624999998,0.32400000000000007,-0.085,0.41500000000000026,0.005654866776461629,-0.0014835298641951802,0.007243116395776472,0.08124208507257173,0.047120466905471656,-5.304615523756263,0.2857621168765344,-0.0,24.3,0x0000,0x4056
26,0.9061026429999401,adis16470,-0.00625,0.00375,1.00125,-0.0612915625,0.03677493749999999,9.8189083125,0.524,-0.085,0.5150000000000003,0.009145525280450288,-0.0014835298641951802,0.008988445647770803,0.10180152486604707,0.05042853907414625,-5.286671473516244,0.21458993112939587,0.35764440397935404,24.1,0x0000,0x4056
27,0.9409093119998033,adis16470,-0.0025,0.00625,1.0,-0.024516625,0.0612915625,9.80665,0.22400000000000003,0.115,0.41500000000000026,0.003909537524467299,0.002007128639793479,0.007243116395776472,0.11456813353404753,0.056207406945393244,-5.272226705881301,0.35809395932357113,0.14323635282226646,24.3,0x0000,0x4056
28,0.9757879779999712,adis16470,-0.005,0.0075,0.99875,-0.04903325,0.07354987499999999,9.7943916875,-0.076,0.115,0.21500000000000027,-0.0013264502315156904,0.002007128639793479,0.003752457891787813,0.11828396389455821,0.0647506320273849,-5.264727776781237,0.43024807932067954,0.286826961143315,24.3,0x0000,0x4056
29,1.0106138129999636,adis16470,-0.00375,0.00875,1.00375,-0.03677493749999999,0.08580818750000001,9.843424937499998,-0.076,0.115,0.41500000000000026,-0.0013264502315156904,0.002007128639793479,0.007243116395776472,0.12331351186408894,0.07166142716799209,-5.25027509385121,0.4994524255793412,0.21404733288736985,24.3,0x0000,0x4056
30,1.0454940529998566,adis16470,-0.005,0.00625,1.0025,-0.04903325,0.0612915625,9.831166624999998,-0.076,-0.085,0.015000000000000263,-0.0013264502315156904,-0.0014835298641951802,0.000261799387799154,0.12539338095359143,0.07303780590546753,-5.249751890251211,0.35720098009881457,0.28575656364131835,23.900000000000002,0x0000,0x4056
31,1.0803257019997545,adis16470,-0.005,0.00625,1.0025,-0.04903325,0.0612915625,9.831166624999998,0.024000000000000007,0.21500000000000002,-1.9849999999999999,0.0004188790204786392,0.003752457891787809,-0.03464478565208744,0.1308487737913792,0.08463121371851429,-5.318892753216492,0.35720098009881457,0.28575656364131835,24.3,0x0000,0x4056
32,1.115196683999784,adis16470,-0.00375,0.005,1.0050000000000001,-0.03677493749999999,0.04903325,9.85568325,0.12400000000000001,0.21500000000000002,-10.985000000000001,0.002164208272472969,0.003752457891787809,-0.19172441833157713,0.1381703521619376,0.09456164841152512,-5.701951083675538,0.28505127758382637,0.21378658410997073,24.400000000000002,0x0000,0x4056
33,1.1500596649998442,adis16470,0.0025,0.005,0.99625,0.024516625,0.04903325,9.769875062499999,-0.176,0.115,-13.185,-0.00307177948351002,0.002007128639793479,-0.23012166187545235,0.13514488409940859,0.09372393708220435,-6.16161876298201,0.2875548228571788,-0.1437765060630057,24.200000000000003,0x0000,0x4056
34,1.1849270170000636,adis16470,-0.00125,0.0075,1.0025,-0.0122583125,0.07354987499999999,9.831166624999998,-0.376,0.115,-16.385,-0.006562437987498679,0.002007128639793479,-0.2859721979392709,0.1281668458391592,0.09720778858991906,-6.732920030571273,0.4286387327021102,0.0714390853781933,24.3,0x0000,0x4056
35,1.2197813879997739,adis16470,-0.00125,0.00625,0.9975,-0.0122583125,0.0612915625,9.782133375,-0.476,0.115,-13.885000000000002,-0.008307767239493008,0.002007128639793479,-0.24233896663941268,0.11652445343409228,0.100627679997878,-7.216873471769591,0.3589914144593881,0.07179777554151914,24.200000000000003,0x0000,0x4056
36,1.2546597390000898,adis16470,-0.0125,0.0025,1.00375,-0.122583125,0.024516625,9.843424937499998,0.12400000000000001,0.21500000000000002,-5.485,0.002164208272472969,0.003752457891787809,-0.09573130947188899,0.12128648661994428,0.1202336868041114,-7.408182345944468,0.142704012546829,0.7134824433847842,24.1,0x0000,0x4056
37,1.2894505019999087,adis16470,-0.0075,0.01,0.99875,-0.07354987499999999,0.0980665,9.7943916875,0.22400000000000003,0.015000000000000003,-1.4849999999999999,0.003909537524467299,0.00026179938779914946,-0.02591813939211579,0.137971119155971,0.12694496622636126,-7.459846490894309,0.5736557195024539,0.430226515466683,24.400000000000002,0x0000,0x4056
38,1.3242547079998985,adis16470,-0.0575,-0.01875,0.99875,-0.563882375,-0.1838746875,9.7943916875,0.22400000000000003,0.515,-55.385,0.003909537524467299,0.008988445647770798,-0.9666506062170593,0.12134159394731443,0.20785993936159175,-9.387467193986357,-1.0755140757742527,3.2944141530496727,24.1,0x0000,0x4056
39,1.359087523999733,adis16470,0.08750000000000001,-0.00125,1.00375,0.858081875,-0.0122583125,9.843424937499998,0.12400000000000001,0.015000000000000003,-52.385,0.002164208272472969,0.00026179938779914946,-0.9142907286572295,0.12172061033524337,0.10457373183351373,-11.21218719371431,-0.07135211692916192,-4.982052597962416,24.3,0x0000,0x4056
40,1.3939511539997511,adis16470,0.01625,0.0125,0.9975,0.1593580625,0.122583125,9.782133375,-0.676,1.015,-34.985,-0.011798425743481668,0.017715091907742442,-0.6106034388102162,0.11054869827855895,0.11849663135871971,-12.431898426193102,0.7179546449064098,-0.9332340758802519,24.200000000000003,0x0000,0x4056
41,1.4287575640000796,adis16470,0.085,-0.01375,1.0,0.83356525,-0.1348414375,9.80665,0.32400000000000007,-0.185,-44.585,0.005654866776461629,-0.0032288591161895096,-0.7781550470016718,0.10363406180464863,0.012656205504724224,-13.983735572881901,-0.7877673250543098,-4.858005905375278,24.1,0x0000,0x4056
42,1.463562937000006,adis16470,-0.07375,0.00125,1.0,-0.7232404374999999,0.0122583125,9.80665,-0.076,0.515,-43.885,-0.0013264502315156904,0.008988445647770798,-0.7659377422377115,0.10040147564080568,0.11432780230457695,-15.511166119508061,0.07161968708944809,4.2179243252259395,24.3,0x0000,0x4056
43,1.4983721979997426,adis16470,-0.00625,0.04,1.0050000000000001,-0.0612915625,0.392266,9.85568325,0.42400000000000004,-0.28500000000000003,-45.285,0.0074001960284559585,-0.004974188368183839,-0.790372351765632,0.15844186498003965,0.10943966168044214,-17.087498522542624,2.2792260214267026,0.3560305648127016,24.3,0x0000,0x4056
44,1.5331597199997304,adis16470,-0.07375,0.00875,1.0025,-0.7232404374999999,0.08580818750000001,9.831166624999998,-0.176,0.015000000000000003,-30.685000000000002,-0.00307177948351002,0.00026179938779914946,-0.53555428097446,0.15927438859697982,0.1919079887354651,-18.154951916742515,0.5000751526082065,4.20728722692183,24.1,0x0000,0x4056
45,1.567927612999938,adis16470,-0.01125,0.0025,1.00125,-0.1103248125,0.024516625,9.8189083125,0.12400000000000001,0.115,-27.385,0.002164208272472969,0.002007128639793479,-0.47795841565864716,0.16317510400539725,0.20486304679651912,-19.107071186862697,0.14306032570581104,0.6437437076681276,23.8,0x0000,0x4056
46,1.6027328569998645,adis16470,0.00125,-0.0125,1.0025,0.0122583125,-0.122583125,9.831166624999998,0.22400000000000003,-0.085,-17.885,0.003909537524467299,-0.0014835298641951802,-0.31215213671918585,0.15326455266036812,0.19643780314978804,-19.72956195635903,-0.7143741957588757,-0.07143553168472414,24.200000000000003,0x0000,0x4056
47,1.637539858999844,adis16470,-0.00125,0.00125,1.0025,-0.0122583125,0.0122583125,9.831166624999998,-0.376,-0.185,-9.285,-0.006562437987498679,-0.0032288591161895096,-0.1620538210476735,0.13880240583405518,0.18762736146813447,-20.05274480280061,0.07144108456385073,0.07144102902864945,24.3,0x0000,0x4056
48,1.6723431020000135,adis16470,-0.00375,-0.00375,1.00375,-0.03677493749999999,-0.03677493749999999,9.843424937499998,-0.176,0.015000000000000003,-4.485,-0.00307177948351002,0.00026179938779914946,-0.07827801695194568,0.12574238177670702,0.18866750162462276,-20.20883743287047,-0.21405546554562488,0.21405397172257223,24.3,0x0000,0x4056
49,1.7071760479998375,adis16470,-0.0075,0.00375,1.0050000000000001,-0.07354987499999999,0.03677493749999999,9.85568325,-0.276,-0.085,-0.6849999999999997,-0.00481710873550435,-0.0014835298641951802,-0.011955505376161153,0.11808163345036568,0.1905439362245561,-20.232698178295344,0.21378922987711652,0.42756953044551244,24.3,0x0000,0x4056
50,1.7419893279998178,adis16470,-0.0075,0.00625,0.9975,-0.07354987499999999,0.0612915625,9.782133375,-0.176,0.115,-0.5849999999999997,-0.00307177948351002,0.002007128639793479,-0.010210176124166824,0.11689526006315487,0.1992720727072069,-20.25306386051545,0.3589914144593881,0.43077876153607486,24.400000000000002,0x0000,0x4056
51,1.776881067999966,adis16470,-0.005,0.005,1.00125,-0.04903325,0.04903325,9.8189083125,-0.276,0.015000000000000003,-2.085,-0.00481710873550435,0.00026179938779914946,-0.03639011490408177,0.11084217434865547,0.20152184801094472,-20.32581344699534,0.28611886764947253,0.2861153002141356,24.200000000000003,0x0000,0x4056
52,1.8117684919998283,adis16470,-0.00625,0.0075,1.00375,-0.0612915625,0.07354987499999999,9.843424937499998,-0.276,0.015000000000000003,-5.785,-0.00481710873550435,0.00026179938779914946,-0.10096729722787197,0.10775103436609104,0.20513918264326209,-20.52763816092985,0.4281049559032857,0.3567462002418752,23.900000000000002,0x0000,0x4056
53,1.8466374509998786,adis16470,-0.0075,0.01,0.99875,-0.07354987499999999,0.0980665,9.7943916875,-0.276,0.115,-7.585000000000001,-0.00481710873550435,0.002007128639793479,-0.1323832237637699,0.10763783208502466,0.21357063595964454,-20.792117531075792,0.5736557195024539,0.430226515466683,23.8,0x0000,0x4056
54,1.8814460059998055,adis16470,-0.0125,-0.00375,1.0025,-0.122583125,-0.03677493749999999,9.831166624999998,0.12400000000000001,0.115,-7.085000000000001,0.002164208272472969,0.002007128639793479,-0.12365657750379826,0.10542856593156807,0.22750953338565305,-21.038736270778926,-0.21432236513420277,0.7143691984065547,24.3,0x0000,0x4056
55,1.9163345189999745,adis16470,-0.00875,0.0075,1.0025,-0.08580818750000001,0.07354987499999999,9.831166624999998,0.12400000000000001,0.31500000000000006,0.015000000000000263,0.002164208272472969,0.0054977871437821395,0.000261799387799154,0.11613243497702132,0.24373068444260448,-21.03821294140392,0.4286387327021102,0.5000611593528398,24.3,0x0000,0x4056
56,1.9511860530001286,adis16470,-0.00375,0.005,0.99875,-0.03677493749999999,0.04903325,9.7943916875,0.024000000000000007,0.015000000000000003,0.41500000000000026,0.0004188790204786392,0.00026179938779914946,0.007243116395776472,0.12036619268507769,0.24367087418915814,-21.02374960127393,0.28683504810786925,0.21512437660030614,23.900000000000002,0x0000,0x4056
57,1.98601680999991,adis16470,-0.01125,0.00625,0.9975,-0.1103248125,0.0612915625,9.782133375,-0.176,0.31500000000000006,-1.7849999999999997,-0.00307177948351002,0.0054977871437821395,-0.031154127148098777,0.11913109453501254,0.2624727584436654,-21.085922436473428,0.3589914144593881,0.646152923718873,24.200000000000003,0x0000,0x4056
58,2.0208651590000954,adis16470,0.0,-0.0125,0.99625,0.0,-0.122583125,9.769875062499999,0.024000000000000007,-0.085,-5.585000000000001,0.0004188790204786392,-0.0014835298641951802,-0.09747663872388332,0.10319099924660709,0.2543204327209713,-21.280550672284818,-0.7188553718215523,-0.0,24.900000000000002,0x0000,0x4056
59,2.0556708059998527,adis16470,-0.0075,0.0075,1.00125,-0.07354987499999999,0.07354987499999999,9.8189083125,0.12400000000000001,0.115,-0.5849999999999997,0.002164208272472969,0.002007128639793479,-0.010210176124166824,0.11394023602027543,0.26173985439744235,-21.30091196466479,0.42917384220227756,0.4291618027647562,24.3,0x0000,0x4056
60,2.0905177469999217,adis16470,-0.0025,0.01125,1.00375,-0.024516625,0.1103248125,9.843424937499998,0.12400000000000001,0.115,0.3150000000000003,0.002164208272472969,0.002007128639793479,0.005497787143782143,0.12873888612567902,0.26328621284859816,-21.289935166279754,0.6421424968857137,0.14269505028954443,24.3,0x0000,0x4056
61,2.1253146720000586,adis16470,-0.00125,0.005,1.0,-0.0122583125,0.04903325,9.80665,-0.176,0.115,0.11500000000000027,-0.00307177948351002,0.002007128639793479,0.0020071286397934838,0.12589187464361803,0.26337447156512744,-21.285933526344774,0.2864765102770745,0.07161879186107749,24.400000000000002,0x0000,0x4056
62,2.1601682249997793,adis16470,-0.00375,0.01,1.0025,-0.03677493749999999,0.0980665,9.831166624999998,0.024000000000000007,0.115,0.11500000000000027,0.0004188790204786392,0.002007128639793479,0.0020071286397934838,0.13562399655354004,0.26632122830234967,-21.281925350729775,0.5715100177637471,0.21431170329138277,24.400000000000002,0x0000,0x4056
63,2.19500361099972,adis16470,-0.0075,0.01,1.0,-0.07354987499999999,0.0980665,9.80665,-0.176,0.21500000000000002,0.41500000000000026,-0.00307177948351002,0.003752457891787809,0.007243116395776472,0.13836189906701826,0.2769283763081715,-21.267468703719775,0.5729386976834859,0.4296888063033996,23.900000000000002,0x0000,0x4056
64,2.2298450709999997,adis16470,-0.00625,0.0025,1.00375,-0.0612915625,0.024516625,9.843424937499998,-0.176,0.21500000000000002,0.5150000000000003,-0.00307177948351002,0.003752457891787809,0.008988445647770803,0.13243929269753718,0.28586599764791026,-21.249525370874665,0.142704012546829,0.3567550519878277,24.3,0x0000,0x4056
65,2.2647089009997217,adis16470,-0.005,0.01,1.00375,-0.04903325,0.0980665,9.843424937499998,0.12400000000000001,0.115,0.41500000000000026,0.002164208272472969,0.002007128639793479,0.007243116395776472,0.14544314206734368,0.2897856877148315,-21.235056827889778,0.5707983463055499,0.28539209203053767,24.3,0x0000,0x4056
66,2.299517750999712,adis16470,-0.0025,0.005,1.0,-0.024516625,0.04903325,9.80665,-0.076,0.015000000000000003,0.11500000000000027,-0.0013264502315156904,0.00026179938779914946,0.0020071286397934838,0.1456712531356943,0.28736640990153484,-21.231053820719772,0.2864765102770745,0.14323735991995798,24.3,0x0000,0x4056
67,2.3343625080001402,adis16470,-0.00625,0.01125,1.0025,-0.0612915625,0.1103248125,9.831166624999998,0.32400000000000007,0.31500000000000006,1.2150000000000003,0.005654866776461629,0.0054977871437821395,0.02120575041173111,0.16668057362446256,0.299519204862445,-21.188717532089946,0.6429431061443761,0.35717849127924595,24.700000000000003,0x0000,0x4056
68,2.3691852279998784,adis16470,-0.005,0.00625,1.0,-0.04903325,0.0612915625,9.80665,-0.076,0.115,0.11500000000000027,-0.0013264502315156904,0.002007128639793479,0.0020071286397934838,0.16791523547043116,0.30318277426601464,-21.184712904339925,0.35809395932357113,0.2864709152898976,24.8,0x0000,0x4056
69,2.404008207000061,adis16470,-0.005,0.00625,0.99875,-0.04903325,0.0612915625,9.7943916875,-0.076,0.31500000000000006,-1.7849999999999997,-0.0013264502315156904,0.0054977871437821395,-0.031154127148098777,0.16913415496088496,0.31360557277042084,-21.246871989685346,0.3585421253019974,0.2868294320876917,23.900000000000002,0x0000,0x4056
70,2.438824760999978,adis16470,-0.0075,0.0075,1.0025,-0.07354987499999999,0.07354987499999999,9.831166624999998,-0.176,0.015000000000000003,-0.2849999999999997,-0.00307177948351002,0.00026179938779914946,-0.004974188368183834,0.16831910659959476,0.31641779777722506,-21.25679467565527,0.4286387327021102,0.428626738240826,24.3,0x0000,0x4056
71,2.47368459099971,adis16470,-0.0075,0.0075,1.0,-0.07354987499999999,0.07354987499999999,9.80665,0.22400000000000003,0.115,0.11500000000000027,0.003909537524467299,0.002007128639793479,0.0020071286397934838,0.1811993561858467,0.3226121067293146,-21.25278579727528,0.42971028940104355,0.4296982047621414,24.3,0x0000,0x4056
72,2.508523476999926,adis16470,-0.00375,0.0075,1.00125,-0.03677493749999999,0.07354987499999999,9.8189083125,-0.076,0.21500000000000002,0.21500000000000027,-0.0013264502315156904,0.003752457891787809,0.003752457891787813,0.18356404709201815,0.3277920920947668,-21.245295440870287,0.42917384220227756,0.2145839111573227,24.700000000000003,0x0000,0x4056
73,2.5433562709999933,adis16470,-0.005,0.00625,1.0025,-0.04903325,0.0612915625,9.831166624999998,0.12400000000000001,0.115,0.3150000000000003,0.002164208272472969,0.002007128639793479,0.005497787143782143,0.19126966687904226,0.33087703740950536,-21.234323110760265,0.35720098009881457,0.28575656364131835,24.3,0x0000,0x4056
74,2.578220156000043,adis16470,-0.01375,0.00375,1.00125,-0.1348414375,0.03677493749999999,9.8189083125,0.32400000000000007,0.115,3.8150000000000004,0.005654866776461629,0.002007128639793479,0.06658431096358368,0.20280606467752527,0.34392422969945113,-21.10131724832983,0.21458993112939587,0.7867784514361521,24.400000000000002,0x0000,0x4056
75,2.6130455249999613,adis16470,-0.0075,0.0125,1.0,-0.07354987499999999,0.122583125,9.80665,-0.176,0.41500000000000004,1.1150000000000002,-0.00307177948351002,0.007243116395776468,0.019460421159736778,0.20706644988473516,0.3598027872431175,-21.06248687938478,0.7161599454704085,0.4296767234768476,24.400000000000002,0x0000,0x4056
76,2.6479036509999787,adis16470,-0.00625,0.00375,1.0025,-0.0612915625,0.03677493749999999,9.831166624999998,-0.076,-0.085,0.3150000000000003,-0.0013264502315156904,-0.0014835298641951802,0.005497787143782143,0.20461533362461742,0.3568470177256958,-21.051506564024837,0.21432236513420277,0.3571984811313124,24.3,0x0000,0x4056
77,2.6827172789999167,adis16470,-0.0075,0.005,1.0,-0.07354987499999999,0.04903325,9.80665,-0.176,0.21500000000000002,0.11500000000000027,-0.00307177948351002,0.003752457891787809,0.0020071286397934838,0.2002479376136207,0.36563936438522887,-21.047503020149808,0.2864765102770745,0.4297049183245466,24.3,0x0000,0x4056
78,2.71752229599997,adis16470,-0.01,0.00625,1.00125,-0.0980665,0.0612915625,9.8189083125,-0.176,0.115,0.6150000000000003,-0.00307177948351002,0.002007128639793479,0.010733774899765132,0.19739275415730334,0.37369334471788623,-21.026097957449814,0.3576469123176653,0.5722123187181539,24.1,0x0000,0x4056
79,2.7523230169999806,adis16470,-0.00625,0.005,0.99625,-0.0612915625,0.04903325,9.769875062499999,0.024000000000000007,0.015000000000000003,-0.18499999999999975,0.0004188790204786392,0.00026179938779914946,-0.0032288591161895052,0.20001450806585488,0.3739197942439552,-21.032536087504766,0.2875548228571788,0.3594373043165229,24.6,0x0000,0x4056
80,2.7870958509997763,adis16470,-0.00375,0.00625,1.00125,-0.03677493749999999,0.0612915625,9.8189083125,0.024000000000000007,0.115,0.11500000000000027,0.0004188790204786392,0.002007128639793479,0.0020071286397934838,0.20398501188944954,0.37465200545045824,-21.028537218034774,0.3576469123176653,0.21458575053948123,24.3,0x0000,0x4056
81,2.8219947879997562,adis16470,-0.0075,0.0075,1.00125,-0.07354987499999999,0.07354987499999999,9.8189083125,0.024000000000000007,0.21500000000000002,-0.18499999999999975,0.0004188790204786392,0.003752457891787809,-0.0032288591161895052,0.20930961977299434,0.383095481589118,-21.03499358649984,0.42917384220227756,0.4291618027647562,24.3,0x0000,0x4056
82,2.85682480100013,adis16470,-0.0075,0.00875,0.99875,-0.07354987499999999,0.08580818750000001,9.7943916875,-0.276,0.21500000000000002,-0.6849999999999997,-0.00481710873550435,0.003752457891787809,-0.011955505376161153,0.2057417043429961,0.3913768518935885,-21.05885203100975,0.5019526855752704,0.4302315692040567,24.3,0x0000,0x4056
83,2.891640314000142,adis16470,-0.00875,0.00375,1.00125,-0.08580818750000001,0.03677493749999999,9.8189083125,-0.076,0.015000000000000003,-0.7849999999999997,-0.0013264502315156904,0.00026179938779914946,-0.013700834628155481,0.20332560947048317,0.39407502135382033,-21.08618220871476,0.21458993112939587,0.5006959228501728,24.200000000000003,0x0000,0x4056
84,2.926454308999837,adis16470,-0.00625,0.0,1.00125,-0.0612915625,0.0,9.8189083125,-0.276,0.015000000000000003,0.015000000000000263,-0.00481710873550435,0.00026179938779914946,0.000261799387799154,0.18984265308360734,0.3938582224446987,-21.08566000129476,0.0,0.3576469123176653,24.3,0x0000,0x4056
85,2.9612628780000705,adis16470,-0.00625,0.00625,0.99875,-0.0612915625,0.0612915625,9.7943916875,-0.076,0.015000000000000003,0.11500000000000027,-0.0013264502315156904,0.00026179938779914946,0.0020071286397934838,0.1906241003088716,0.3936634460676162,-21.081657015859783,0.3585421253019974,0.35853510537573596,24.400000000000002,0x0000,0x4056
86,2.996072353999807,adis16470,-0.0075,0.00875,1.0050000000000001,-0.07354987499999999,0.08580818750000001,9.85568325,-0.176,0.115,0.3150000000000003,-0.00307177948351002,0.002007128639793479,0.005497787143782143,0.19078430155519838,0.3982643332888998,-21.070692024934786,0.4988312475051259,0.4275563028068506,24.1,0x0000,0x4056
87,3.030876441000146,adis16470,-0.00625,0.00875,1.0,-0.0612915625,0.08580818750000001,9.80665,-0.076,0.115,0.41500000000000026,-0.0013264502315156904,0.002007128639793479,0.007243116395776472,0.19440291124444098,0.401383074413002,-21.05624832094473,0.5013252767618416,0.35808025218322936,24.3,0x0000,0x4056
88,3.065736748999825,adis16470,-0.00625,0.00625,1.00125,-0.0612915625,0.0612915625,9.8189083125,-0.176,0.21500000000000002,0.3150000000000003,-0.00307177948351002,0.003752457891787809,0.005497787143782143,0.19165502790626074,0.4078533488802299,-21.045267219029792,0.3576469123176653,0.357639944841554,24.3,0x0000,0x4056
89,3.1006054449999283,adis16470,-0.0075,0.01,0.99875,-0.07354987499999999,0.0980665,9.7943916875,0.024000000000000007,0.015000000000000003,0.3150000000000003,0.0004188790204786392,0.00026179938779914946,0.005497787143782143,0.2001151504105073,0.4088133801321606,-21.034283620739757,0.5736557195024539,0.430226515466683,24.3,0x0000,0x4056
90,3.1353911440000957,adis16470,-0.005,0.00375,1.0,-0.04903325,0.03677493749999999,9.80665,-0.176,-0.185,0.3150000000000003,-0.00307177948351002,-0.0032288591161895096,0.005497787143782143,0.19441018284580847,0.400059965193225,-21.023326142879807,0.2148581660301822,0.28647449604392583,24.200000000000003,0x0000,0x4056
91,3.1702229530001205,adis16470,-0.00625,0.00875,1.0025,-0.0612915625,0.08580818750000001,9.831166624999998,-0.076,0.115,0.015000000000000263,-0.0013264502315156904,0.002007128639793479,0.000261799387799154,0.19792920776607487,0.4031280602971652,-21.022803665474804,0.5000751526082065,0.3571873752436033,24.200000000000003,0x0000,0x4056
92,3.2050847239997893,adis16470,-0.00625,0.00625,1.00125,-0.0612915625,0.0612915625,9.8189083125,0.024000000000000007,-0.085,0.41500000000000026,0.0004188790204786392,-0.0014835298641951802,0.007243116395776472,0.2019435141919849,0.3993143001353594,-21.008335969089835,0.3576469123176653,0.357639944841554,24.900000000000002,0x0000,0x4056
93,3.2399225499998465,adis16470,-0.00375,0.0075,1.0,-0.03677493749999999,0.07354987499999999,9.80665,-0.176,0.015000000000000003,0.3150000000000003,-0.00307177948351002,0.00026179938779914946,0.005497787143782143,0.20049006613999437,0.39613716883666983,-20.997362135484813,0.42971028940104355,0.21485212345583152,24.400000000000002,0x0000,0x4056
94,3.274734655999964,adis16470,-0.00625,0.00625,0.9975,-0.0612915625,0.0612915625,9.782133375,-0.076,0.115,0.3150000000000003,-0.0013264502315156904,0.002007128639793479,0.005497787143782143,0.2010672902072582,0.39931743299845357,-20.986396333749795,0.3589914144593881,0.3589843681105525,24.200000000000003,0x0000,0x4056
95,3.3095421329999226,adis16470,-0.0075,0.0075,1.0050000000000001,-0.07354987499999999,0.07354987499999999,9.85568325,-0.076,0.115,0.41500000000000026,-0.0013264502315156904,0.002007128639793479,0.007243116395776472,0.20300493365282427,0.4038050990294749,-20.97195123079481,0.42757250683340764,0.4275606016547555,24.3,0x0000,0x4056
96,3.344350349999786,adis16470,-0.00625,0.01,0.99875,-0.0612915625,0.0980665,9.7943916875,0.12400000000000001,0.015000000000000003,0.41500000000000026,0.002164208272472969,0.00026179938779914946,0.007243116395776472,0.21464784389964026,0.4034111609410647,-20.95750582073987,0.5736557195024539,0.35852415511406377,24.3,0x0000,0x4056
97,3.3791502710000714,adis16470,-0.0075,0.0075,1.00375,-0.07354987499999999,0.07354987499999999,9.843424937499998,0.024000000000000007,-0.085,0.5150000000000003,0.0004188790204786392,-0.0014835298641951802,0.008988445647770803,0.2197354794113984,0.4010059675089148,-20.939583880479756,0.4281049559032857,0.4280930061944947,24.3,0x0000,0x4056
98,3.4139544509998814,adis16470,-0.005,0.005,0.9975,-0.04903325,0.04903325,9.782133375,0.22400000000000003,0.015000000000000003,0.11500000000000027,0.003909537524467299,0.00026179938779914946,0.0020071286397934838,0.22872487727770804,0.3992412874177776,-20.9355813975948,0.28719448450717,0.2871908766873399,24.3,0x0000,0x4056
99,3.4487445579998166,adis16470,-0.00625,0.0075,1.00125,-0.0612915625,0.07354987499999999,9.8189083125,-0.076,0.21500000000000002,0.3150000000000003,-0.0013264502315156904,0.003752457891787809,0.005497787143782143,0.23014269223705433,0.4057394667934144,-20.924622525859693,0.42917384220227756,0.35763687928106613,24.1,0x0000,0x4056
100,3.483506443999886,adis16470,-0.00625,0.00875,1.00125,-0.0612915625,0.08580818750000001,9.8189083125,-0.176,0.115,-0.3849999999999998,-0.00307177948351002,0.002007128639793479,-0.006719517620178165,0.229558090601178,0.40869501130856134,-20.93800586621457,0.5006994343924603,0.35763325644757515,24.400000000000002,0x0000,0x4056
101,3.5183897689998958,adis16470,-0.00375,0.0075,1.00125,-0.03677493749999999,0.07354987499999999,9.8189083125,-0.076,0.21500000000000002,-0.5849999999999997,-0.0013264502315156904,0.003752457891787809,-0.010210176124166824,0.23095228590480005,0.4121627332740364,-20.958412687389572,0.42917384220227756,0.2145839111573227,24.3,0x0000,0x4056
102,3.5531783940000423,adis16470,-0.00625,0.00875,1.0025,-0.0612915625,0.08580818750000001,9.831166624999998,0.024000000000000007,0.015000000000000003,0.015000000000000263,0.0004188790204786392,0.00026179938779914946,0.000261799387799154,0.2371529743095961,0.41157462053263266,-20.957890856349568,0.5000751526082065,0.3571873752436033,24.400000000000002,0x0000,0x4056
103,3.5879968509998434,adis16470,-0.005,0.005,1.00125,-0.04903325,0.04903325,9.8189083125,-0.076,0.015000000000000003,-0.7849999999999997,-0.0013264502315156904,0.00026179938779914946,-0.013700834628155481,0.23553902444759425,0.40957726328326255,-20.98522322969956,0.28611886764947253,0.2861153002141356,24.3,0x0000,0x4056
104,3.622813567999856,adis16470,-0.00625,0.0025,1.00125,-0.0612915625,0.024516625,9.8189083125,0.22400000000000003,0.115,-0.3849999999999998,0.003909537524467299,0.002007128639793479,-0.006719517620178165,0.24133239577315774,0.4124624674922382,-20.998627629939417,0.14306032570581104,0.3576457974941225,24.3,0x0000,0x4056
105,3.6576575799999773,adis16470,-0.0025,0.00875,1.00375,-0.024516625,0.08580818750000001,9.843424937499998,-0.076,0.21500000000000002,0.11500000000000027,-0.0013264502315156904,0.003752457891787809,0.0020071286397934838,0.24389959506519315,0.4144088778567692,-20.994620538774406,0.4994524255793412,0.14269859073261912,24.1,0x0000,0x4056
106,3.692505128999983,adis16470,-0.005,0.00625,1.0,-0.04903325,0.0612915625,9.80665,0.32400000000000007,-0.085,0.21500000000000027,0.005654866776461629,-0.0014835298641951802,0.003752457891787813,0.2572482935725466,0.40894731319220406,-20.987128303914336,0.35809395932357113,0.2864709152898976,24.1,0x0000,0x4056
107,3.7273598619999575,adis16470,-0.00875,0.00875,0.99875,-0.08580818750000001,0.08580818750000001,9.7943916875,0.024000000000000007,0.015000000000000003,0.3150000000000003,0.0004188790204786392,0.00026179938779914946,0.005497787143782143,0.262962160828439,0.4113193975465534,-20.976149115309365,0.5019526855752704,0.5019334241647339,24.3,0x0000,0x4056
108,3.762200430000121,adis16470,-0.00375,0.00875,1.0,-0.03677493749999999,0.08580818750000001,9.80665,-0.076,0.015000000000000003,0.41500000000000026,-0.0013264502315156904,0.00026179938779914946,0.007243116395776472,0.2651344976424887,0.4079021647760257,-20.961690279589487,0.5013252767618416,0.21484994154038084,24.1,0x0000,0x4056
109,3.797043589999703,adis16470,-0.00625,0.00625,0.99625,-0.0612915625,0.0612915625,9.769875062499999,0.024000000000000007,0.31500000000000006,0.41500000000000026,0.0004188790204786392,0.0054977871437821395,0.007243116395776472,0.26784015630354724,0.4176889115568185,-20.947230352834445,0.35944183102329696,0.3594347581191183,24.3,0x0000,0x4056
110,3.8319159309999122,adis16470,-0.00875,0.005,1.0025,-0.08580818750000001,0.04903325,9.831166624999998,-0.176,0.21500000000000002,0.41500000000000026,-0.00307177948351002,0.003752457891787809,0.007243116395776472,0.26218377257165826,0.4266841650178398,-20.932758231304472,0.2857621168765344,0.5000689332385733,24.1,0x0000,0x4056
111,3.8667312929997024,adis16470,-0.00625,0.0075,1.0,-0.0612915625,0.07354987499999999,9.80665,-0.076,0.115,0.5150000000000003,-0.0013264502315156904,0.002007128639793479,0.008988445647770803,0.2629412782821698,0.42923581517403875,-20.9148284826145,0.42971028940104355,0.35808388861807694,24.3,0x0000,0x4056
112,3.9016034659998695,adis16470,-0.01,0.0025,1.00125,-0.0980665,0.024516625,9.8189083125,-0.076,0.015000000000000003,0.015000000000000263,-0.0013264502315156904,0.00026179938779914946,0.000261799387799154,0.2579463659323212,0.4326081561957207,-20.914305397229498,0.14306032570581104,0.5722216823931234,24.3,0x0000,0x4056
113,3.9364157350000823,adis16470,-0.00625,0.005,1.00125,-0.0612915625,0.04903325,9.8189083125,-0.076,-0.085,0.015000000000000263,-0.0013264502315156904,-0.0014835298641951802,0.000261799387799154,0.25591701478056206,0.42820899870170237,-20.913783216539493,0.28611886764947253,0.35764245308604325,24.3,0x0000,0x4056
114,3.9712434839998423,adis16470,-0.0075,0.00625,1.00125,-0.07354987499999999,0.0612915625,9.8189083125,0.024000000000000007,0.31500000000000006,-0.2849999999999997,0.0004188790204786392,0.0054977871437821395,-0.004974188368183834,0.2587707635751368,0.43897948318045693,-20.923709151509403,0.3576469123176653,0.4291654813742787,24.200000000000003,0x0000,0x4056
115,4.006064271000014,adis16470,-0.01125,0.005,1.0,-0.1103248125,0.04903325,9.80665,0.32400000000000007,0.21500000000000002,-0.08499999999999977,0.005654866776461629,0.003752457891787809,-0.001483529864195176,0.27038116908217047,0.45042747499371444,-20.926668916874434,0.2864765102770745,0.6445422724245182,24.200000000000003,0x0000,0x4056
116,4.040867652000088,adis16470,-0.0075,0.00625,1.00125,-0.07354987499999999,0.0612915625,9.8189083125,0.22400000000000003,-0.085,0.11500000000000027,0.003909537524467299,-0.0014835298641951802,0.0020071286397934838,0.27976650150905547,0.4471031213142504,-20.922666538869468,0.3576469123176653,0.4291654813742787,24.1,0x0000,0x4056
117,4.07565425499979,adis16470,-0.0075,0.01,1.0,-0.07354987499999999,0.0980665,9.80665,0.12400000000000001,0.115,0.11500000000000027,0.002164208272472969,0.002007128639793479,0.0020071286397934838,0.2898572270393297,0.4506752977945201,-20.91866606664448,0.5729386976834859,0.4296888063033996,24.3,0x0000,0x4056
118,4.110484319000079,adis16470,-0.00875,0.0025,1.00125,-0.08580818750000001,0.024516625,9.8189083125,0.024000000000000007,0.21500000000000002,0.21500000000000027,0.0004188790204786392,0.003752457891787809,0.003752457891787813,0.2877404916945799,0.4590144400047924,-20.911177606754475,0.14306032570581104,0.5006978736978779,24.400000000000002,0x0000,0x4056
119,4.145289587999741,adis16470,-0.005,0.00375,1.0025,-0.04903325,0.03677493749999999,9.831166624999998,0.22400000000000003,0.015000000000000003,0.3150000000000003,0.003909537524467299,0.00026179938779914946,0.005497787143782143,0.29391256535025245,0.4560609899099878,-20.900213970644476,0.21432236513420277,0.2857601176745602,24.200000000000003,0x0000,0x4056
120,4.180095152999911,adis16470,-0.00875,0.00625,1.0025,-0.08580818750000001,0.0612915625,9.831166624999998,0.024000000000000007,0.115,0.3150000000000003,0.0004188790204786392,0.002007128639793479,0.005497787143782143,0.2959969583701892,0.46086365561781684,-20.889250246649404,0.35720098009881457,0.5000654349451272,24.3,0x0000,0x4056
121,4.214897255999858,adis16470,-0.00625,0.00625,1.00375,-0.0612915625,0.0612915625,9.843424937499998,-0.076,0.015000000000000003,0.015000000000000263,-0.0013264502315156904,0.00026179938779914946,0.000261799387799154,0.29462008174139737,0.4592929582786643,-20.888728215104404,0.3567561585024013,0.3567492429552284,24.400000000000002,0x0000,0x4056
122,4.249698432000059,adis16470,-0.00875,0.005,1.00125,-0.08580818750000001,0.04903325,9.8189083125,-0.176,0.115,0.11500000000000027,-0.00307177948351002,0.002007128639793479,0.0020071286397934838,0.2884475506230442,0.4640430554823476,-20.884726079864382,0.28611886764947253,0.5006931917016941,24.200000000000003,0x0000,0x4056
123,4.284502626999711,adis16470,-0.00875,0.00875,1.0,-0.08580818750000001,0.08580818750000001,9.80665,-0.176,0.115,0.21500000000000027,-0.00307177948351002,0.002007128639793479,0.003752457891787813,0.28670208069688746,0.4687107468702809,-20.877243181809416,0.5013252767618416,0.5013060874849053,24.3,0x0000,0x4056
124,4.319293990000006,adis16470,-0.00375,0.0075,1.00375,-0.03677493749999999,0.07354987499999999,9.843424937499998,-0.276,-0.185,0.11500000000000027,-0.00481710873550435,-0.0032288591161895096,0.0020071286397934838,0.28011976546810713,0.45730984436637745,-20.873242172994402,0.4281049559032857,0.21404949044105556,24.400000000000002,0x0000,0x4056
125,4.3540880370001105,adis16470,-0.00625,0.00875,1.00125,-0.0612915625,0.08580818750000001,9.8189083125,-0.076,0.21500000000000002,0.015000000000000263,-0.0013264502315156904,0.003752457891787809,0.000261799387799154,0.28193990515269474,0.4626473987157433,-20.872720263684407,0.5006994343924603,0.35763325644757515,24.3,0x0000,0x4056
126,4.388975635999941,adis16470,-0.0025,0.01,0.9975,-0.024516625,0.0980665,9.782133375,-0.076,0.115,0.3150000000000003,-0.0013264502315156904,0.002007128639793479,0.005497787143782143,0.2851901363707551,0.46019815176481316,-20.861730530139365,0.5743745381882245,0.14359092886346206,24.1,0x0000,0x4056
127,4.423797736999859,adis16470,-0.00875,0.00625,1.0,-0.08580818750000001,0.0612915625,9.80665,0.12400000000000001,0.015000000000000003,0.3150000000000003,0.002164208272472969,0.00026179938779914946,0.005497787143782143,0.290879769874746,0.4615323803508957,-20.850761632269432,0.35809395932357113,0.5013154860390937,24.400000000000002,0x0000,0x4056
128,4.458605283999987,adis16470,-0.005,0.0025,0.99625,-0.04903325,0.024516625,9.769875062499999,0.024000000000000007,0.115,0.3150000000000003,0.0004188790204786392,0.002007128639793479,0.005497787143782143,0.2887564130252086,0.46197561544210985,-20.839797272289353,0.14377831680557537,0.2875539174901698,24.200000000000003,0x0000,0x4056
129,4.4934219419997135,adis16470,-0.005,0.0075,0.99875,-0.04903325,0.07354987499999999,9.7943916875,0.12400000000000001,0.015000000000000003,0.41500000000000026,0.002164208272472969,0.00026179938779914946,0.007243116395776472,0.2958171710059738,0.45898444775793107,-20.825348344279437,0.43024807932067954,0.286826961143315,24.200000000000003,0x0000,0x4056
130,4.528224692000094,adis16470,-0.00875,0.0075,1.0,-0.08580818750000001,0.07354987499999999,9.80665,-0.076,0.115,0.3150000000000003,-0.0013264502315156904,0.002007128639793479,0.005497787143782143,0.29590293274666185,0.46375323989684886,-20.81438551267938,0.42971028940104355,0.5013111783028065,24.200000000000003,0x0000,0x4056
131,4.563025386999925,adis16470,-0.00375,0.00625,0.9975,-0.03677493749999999,0.0612915625,9.782133375,-0.076,0.115,0.3150000000000003,-0.0013264502315156904,0.002007128639793479,0.005497787143782143,0.2945727438615643,0.46270806608913095,-20.803423282099413,0.3589914144593881,0.21539242469155281,24.3,0x0000,0x4056
132,4.597820859999956,adis16470,-0.0075,0.00625,0.995,-0.07354987499999999,0.0612915625,9.757616749999999,-0.076,0.015000000000000003,0.015000000000000263,-0.0013264502315156904,0.00026179938779914946,0.000261799387799154,0.29328759115524616,0.46260261867399555,-20.80290135028941,0.3598933792425204,0.43186103664218767,24.3,0x0000,0x4056
133,4.632614036999712,adis16470,-0.005,0.005,1.00375,-0.04903325,0.04903325,9.843424937499998,0.024000000000000007,0.015000000000000003,0.41500000000000026,0.0004188790204786392,0.00026179938779914946,0.007243116395776472,0.2939482995243482,0.4595700800134103,-20.788462189304433,0.2854062546264104,0.28540271377977505,24.3,0x0000,0x4056
134,4.667375844999697,adis16470,-0.01,0.0075,1.00125,-0.0980665,0.07354987499999999,9.8189083125,-0.176,0.21500000000000002,0.8150000000000004,-0.00307177948351002,0.003752457891787809,0.014224433403753792,0.29065706820706405,0.4691471708246861,-20.760131195164607,0.42917384220227756,0.5722074141194758,24.3,0x0000,0x4056
135,4.7021978909997415,adis16470,-0.0075,0.01,1.00125,-0.07354987499999999,0.0980665,9.8189083125,0.12400000000000001,0.21500000000000002,0.41500000000000026,0.002164208272472969,0.003752457891787809,0.007243116395776472,0.3005199735018067,0.4756842852929204,-20.745680038189484,0.5722234660023792,0.42915243945825565,24.700000000000003,0x0000,0x4056
136,4.737084304999826,adis16470,-0.00375,0.0075,1.00125,-0.03677493749999999,0.07354987499999999,9.8189083125,-0.276,0.015000000000000003,0.11500000000000027,-0.00481710873550435,0.00026179938779914946,0.0020071286397934838,0.2936569738876735,0.47097510808130316,-20.741668100694525,0.42917384220227756,0.2145839111573227,24.3,0x0000,0x4056
137,4.7719176279997555,adis16470,-0.005,0.00875,1.00125,-0.04903325,0.08580818750000001,9.8189083125,0.024000000000000007,0.015000000000000003,0.5150000000000003,0.0004188790204786392,0.00026179938779914946,0.008988445647770803,0.29861710374848877,0.4677898151823801,-20.723728919779536,0.5006994343924603,0.28610794280016494,24.200000000000003,0x0000,0x4056
138,4.8067422489998535,adis16470,-0.005,0.00625,1.0050000000000001,-0.04903325,0.0612915625,9.85568325,-0.176,0.015000000000000003,0.11500000000000027,-0.00307177948351002,0.00026179938779914946,0.0020071286397934838,0.2937644792288252,0.4646468544747616,-20.71972410124449,0.35631244338452583,0.28504576568618034,24.8,0x0000,0x4056
139,4.841578067999762,adis16470,-0.00875,0.005,1.0025,-0.08580818750000001,0.04903325,9.831166624999998,0.024000000000000007,0.21500000000000002,0.11500000000000027,0.0004188790204786392,0.003752457891787809,0.0020071286397934838,0.2944237726320155,0.47269522270840303,-20.71571797136451,0.2857621168765344,0.5000689332385733,23.900000000000002,0x0000,0x4056
140,4.8764420349998545,adis16470,-0.00625,0.01,1.0,-0.0612915625,0.0980665,9.80665,-0.276,0.015000000000000003,0.21500000000000027,-0.00481710873550435,0.00026179938779914946,0.003752457891787813,0.2905640656093372,0.47091533968312704,-20.708222218674486,0.5729386976834859,0.3580760564345279,24.5,0x0000,0x4056
141,4.91125030000012,adis16470,-0.00625,0.00375,1.0,-0.0612915625,0.03677493749999999,9.80665,0.024000000000000007,0.115,0.21500000000000027,0.0004188790204786392,0.002007128639793479,0.003752457891787813,0.2898686406212741,0.4725817656960154,-20.700738417834486,0.2148581660301822,0.35809144156754014,24.1,0x0000,0x4056
142,4.946067175999815,adis16470,-0.00875,0.0075,1.0,-0.08580818750000001,0.07354987499999999,9.80665,-0.076,0.115,0.3150000000000003,-0.0013264502315156904,0.002007128639793479,0.005497787143782143,0.29007232503606306,0.477080197165161,-20.68977115418446,0.42971028940104355,0.5013111783028065,24.3,0x0000,0x4056
143,4.980884495999817,adis16470,-0.00625,0.00625,1.0,-0.0612915625,0.0612915625,9.80665,0.22400000000000003,0.015000000000000003,0.11500000000000027,0.003909537524467299,0.00026179938779914946,0.0020071286397934838,0.29907583956370576,0.4752121460518148,-20.685767170894472,0.35809395932357113,0.3580869656879436,24.3,0x0000,0x4056
144,5.015647356000045,adis16470,-0.005,0.00375,1.0025,-0.04903325,0.03677493749999999,9.831166624999998,-0.5760000000000001,0.115,0.21500000000000027,-0.01005309649148734,0.002007128639793479,0.003752457891787813,0.277757862473246,0.47534087349505966,-20.678293168034493,0.21432236513420277,0.2857601176745602,24.3,0x0000,0x4056
145,5.050455787999908,adis16470,-0.0075,0.005,1.0025,-0.07354987499999999,0.04903325,9.831166624999998,-0.176,0.21500000000000002,0.21500000000000027,-0.00307177948351002,0.003752457891787809,0.003752457891787813,0.2719141955917463,0.48174085288573865,-20.670809363109537,0.2857621168765344,0.42863340170611625,24.400000000000002,0x0000,0x4056
146,5.085268015000111,adis16470,-0.00875,0.0075,1.00125,-0.08580818750000001,0.07354987499999999,9.8189083125,-0.076,0.015000000000000003,-0.2849999999999997,-0.0013264502315156904,0.00026179938779914946,-0.004974188368183834,0.2724665724418768,0.48263148361755565,-20.680730853219536,0.42917384220227756,0.5006853886665867,23.900000000000002,0x0000,0x4056
147,5.120082853999975,adis16470,-0.005,0.00625,0.99875,-0.04903325,0.0612915625,9.7943916875,-0.076,0.31500000000000006,0.11500000000000027,-0.0013264502315156904,0.0054977871437821395,0.0020071286397934838,0.27159507704610014,0.4894627719644372,-20.676727150989507,0.3585421253019974,0.2868294320876917,24.200000000000003,0x0000,0x4056
148,5.154894026999955,adis16470,-0.00625,0.00875,1.0,-0.0612915625,0.08580818750000001,9.80665,-0.076,-0.085,0.21500000000000027,-0.0013264502315156904,-0.0014835298641951802,0.003752457891787813,0.2735969435347506,0.48393534935853055,-20.669242744924553,0.5013252767618416,0.35808025218322936,24.3,0x0000,0x4056
149,5.189696384999934,adis16470,-0.00875,0.00875,1.00375,-0.08580818750000001,0.08580818750000001,9.843424937499998,-0.076,0.115,0.11500000000000027,-0.0013264502315156904,0.002007128639793479,0.0020071286397934838,0.275521973551804,0.48816753712903316,-20.665240473754555,0.4994524255793412,0.49943345055377936,24.3,0x0000,0x4056
150,5.224504835000062,adis16470,-0.00375,0.00625,1.00375,-0.03677493749999999,0.0612915625,9.843424937499998,-0.376,0.015000000000000003,0.21500000000000027,-0.006562437987498679,0.00026179938779914946,0.003752457891787813,0.2643204392262928,0.48319689693844153,-20.65775665678953,0.3567561585024013,0.21405131611436504,24.200000000000003,0x0000,0x4056
151,5.259400245000052,adis16470,-0.00875,0.00875,1.0,-0.08580818750000001,0.08580818750000001,9.80665,0.024000000000000007,0.115,0.015000000000000263,0.0004188790204786392,0.002007128639793479,0.000261799387799154,0.26988127860740824,0.48749180585339236,-20.65723322398953,0.5013252767618416,0.5013060874849053,23.8,0x0000,0x4056
152,5.294243285999983,adis16470,-0.00625,0.01,1.0025,-0.0612915625,0.0980665,9.831166624999998,0.024000000000000007,0.015000000000000003,0.21500000000000027,0.0004188790204786392,0.00026179938779914946,0.003752457891787813,0.27673336695981143,0.4853978299331777,-20.649741922229563,0.5715100177637471,0.3571832108027726,24.200000000000003,0x0000,0x4056
153,5.329028681999716,adis16470,-0.0075,0.01,1.0025,-0.07354987499999999,0.0980665,9.831166624999998,0.12400000000000001,0.015000000000000003,0.015000000000000263,0.002164208272472969,0.00026179938779914946,0.000261799387799154,0.28685599869507583,0.48477356411974215,-20.649220144079564,0.5715100177637471,0.4286174099114874,24.200000000000003,0x0000,0x4056
154,5.363840114000141,adis16470,-0.0075,0.00375,0.99625,-0.07354987499999999,0.03677493749999999,9.769875062499999,0.024000000000000007,0.115,0.3150000000000003,0.0004188790204786392,0.002007128639793479,0.005497787143782143,0.2862509791779799,0.4876278217548386,-20.63825457796449,0.21566690934400543,0.4313246520382477,24.1,0x0000,0x4056
155,5.3986518050001,adis16470,-0.005,0.0075,1.0,-0.04903325,0.07354987499999999,9.80665,0.22400000000000003,-0.085,0.6150000000000003,0.003909537524467299,-0.0014835298641951802,0.010733774899765132,0.29676201549766235,0.4807048251962216,-20.61684542243943,0.42971028940104355,0.2864684535993897,24.8,0x0000,0x4056
156,5.433436830000119,adis16470,-0.0075,0.00625,1.0025,-0.07354987499999999,0.0612915625,9.831166624999998,-0.276,0.015000000000000003,0.11500000000000027,-0.00481710873550435,0.00026179938779914946,0.0020071286397934838,0.2885621360886146,0.4801746769012601,-20.61284514237945,0.35720098009881457,0.4286304031082778,24.400000000000002,0x0000,0x4056
157,5.468251520999729,adis16470,-0.00375,0.0075,1.0,-0.03677493749999999,0.07354987499999999,9.80665,0.024000000000000007,0.115,0.21500000000000027,0.0004188790204786392,0.002007128639793479,0.003752457891787813,0.29220394026381846,0.47879183947942905,-20.60535998768449,0.42971028940104355,0.21485212345583152,24.3,0x0000,0x4056
158,5.503080747999775,adis16470,-0.00625,0.005,0.9975,-0.0612915625,0.04903325,9.782133375,0.12400000000000001,0.015000000000000003,0.21500000000000027,0.002164208272472969,0.00026179938779914946,0.003752457891787813,0.29633623028740974,0.4769077342290077,-20.597871648194484,0.28719448450717,0.3589869047483341,24.3,0x0000,0x4056
159,5.537854607000099,adis16470,-0.0075,0.00875,1.00125,-0.07354987499999999,0.08580818750000001,9.8189083125,0.22400000000000003,0.115,0.41500000000000026,0.003909537524467299,0.002007128639793479,0.007243116395776472,0.30805701128599233,0.4798717217130102,-20.58344057348448,0.5006994343924603,0.42915745543909234,24.1,0x0000,0x4056
160,5.572668686999805,adis16470,-0.0075,0.005,0.99875,-0.07354987499999999,0.04903325,9.7943916875,-0.176,0.015000000000000003,0.11500000000000027,-0.00307177948351002,0.00026179938779914946,0.0020071286397934838,0.3016278363993951,0.47939090828041353,-20.579436952214483,0.28683504810786925,0.43024268805319943,24.3,0x0000,0x4056
161,5.607476766999753,adis16470,-0.005,0.005,1.00125,-0.04903325,0.04903325,9.8189083125,0.12400000000000001,0.115,0.11500000000000027,0.002164208272472969,0.002007128639793479,0.0020071286397934838,0.30554753040979793,0.47944826256522616,-20.575434027269445,0.28611886764947253,0.2861153002141356,24.200000000000003,0x0000,0x4056
162,5.642286143000092,adis16470,-0.00625,0.01,1.0,-0.0612915625,0.0980665,9.80665,0.024000000000000007,0.015000000000000003,0.41500000000000026,0.0004188790204786392,0.00026179938779914946,0.007243116395776472,0.311714068985192,0.47753251546131237,-20.56098815905444,0.5729386976834859,0.3580760564345279,24.400000000000002,0x0000,0x4056
163,5.677093742000125,adis16470,-0.005,0.005,1.0025,-0.04903325,0.04903325,9.831166624999998,0.024000000000000007,0.015000000000000003,0.015000000000000263,0.0004188790204786392,0.00026179938779914946,0.000261799387799154,0.3120137050948551,0.47420870837735785,-20.56046604479944,0.2857621168765344,0.2857585627687001,24.200000000000003,0x0000,0x4056
164,5.711932228000023,adis16470,-0.01,0.0075,0.99875,-0.0980665,0.07354987499999999,9.7943916875,-0.076,0.115,0.41500000000000026,-0.0013264502315156904,0.002007128639793479,0.007243116395776472,0.31178360419240575,0.48012364967850496,-20.546007973094408,0.43024807932067954,0.5736395467892722,24.400000000000002,0x0000,0x4056
165,5.746773751000092,adis16470,-0.00625,0.01,1.0,-0.0612915625,0.0980665,9.80665,-0.276,0.115,0.41500000000000026,-0.00481710873550435,0.002007128639793479,0.007243116395776472,0.30758279093672325,0.4816093291159188,-20.531548771759432,0.5729386976834859,0.3580760564345279,24.400000000000002,0x0000,0x4056
166,5.781605921999926,adis16470,-0.00375,0.0075,0.99875,-0.03677493749999999,0.07354987499999999,9.7943916875,0.024000000000000007,0.015000000000000003,0.21500000000000027,0.0004188790204786392,0.00026179938779914946,0.003752457891787813,0.3108553515536875,0.4767915969555662,-20.524059834999385,0.43024807932067954,0.2151210070581326,24.3,0x0000,0x4056
167,5.816514681999706,adis16470,-0.00875,0.00625,1.00125,-0.08580818750000001,0.0612915625,9.8189083125,-0.076,0.21500000000000002,0.5150000000000003,-0.0013264502315156904,0.003752457891787809,0.008988445647770803,0.30919117556841874,0.4846248421501369,-20.506081804544465,0.3576469123176653,0.5006896802907492,24.1,0x0000,0x4056
168,5.851371163999829,adis16470,-0.00375,0.00375,1.0025,-0.03677493749999999,0.03677493749999999,9.831166624999998,0.024000000000000007,-0.085,0.5150000000000003,0.0004188790204786392,-0.0014835298641951802,0.008988445647770803,0.30811362162900835,0.4763152254177837,-20.488130764209597,0.21432236513420277,0.21432086571640446,23.900000000000002,0x0000,0x4056
169,5.886233237999932,adis16470,-0.0075,0.00625,1.00125,-0.07354987499999999,0.0612915625,9.8189083125,0.22400000000000003,0.115,0.21500000000000027,0.003909537524467299,0.002007128639793479,0.003752457891787813,0.316757213878702,0.479301188305355,-20.480635414429518,0.3576469123176653,0.4291654813742787,23.900000000000002,0x0000,0x4056
170,5.921097014999759,adis16470,-0.01125,0.00375,1.0,-0.1103248125,0.03677493749999999,9.80665,0.024000000000000007,0.21500000000000002,0.11500000000000027,0.0004188790204786392,0.003752457891787809,0.0020071286397934838,0.31553922811004576,0.489951870706066,-20.476626084214548,0.2148581660301822,0.6445457969084996,24.3,0x0000,0x4056
171,5.955926683000143,adis16470,-0.005,0.00875,0.99875,-0.04903325,0.08580818750000001,9.7943916875,-0.076,0.115,-0.08499999999999977,-0.0013264502315156904,0.002007128639793479,-0.001483529864195176,0.3166733794902911,0.48981462389444674,-20.47958661066957,0.5019526855752704,0.28682404101865366,24.3,0x0000,0x4056
172,5.9907341109997105,adis16470,-0.00875,0.005,1.00125,-0.08580818750000001,0.04903325,9.8189083125,-0.076,0.41500000000000004,-0.48499999999999976,-0.0013264502315156904,0.007243116395776468,-0.008464846872172494,0.3134698388682223,0.5041883388016415,-20.49646816862939,0.28611886764947253,0.5006931917016941,24.200000000000003,0x0000,0x4056
173,6.025535095000123,adis16470,-0.00625,0.00875,1.00125,-0.0612915625,0.08580818750000001,9.8189083125,0.22400000000000003,0.115,0.3150000000000003,0.003909537524467299,0.002007128639793479,0.005497787143782143,0.3248539184197157,0.5051792955416852,-20.485505893634322,0.5006994343924603,0.35763325644757515,24.3,0x0000,0x4056
174,6.060376039999937,adis16470,-0.01,0.005,1.00125,-0.0980665,0.04903325,9.8189083125,0.32400000000000007,0.515,0.41500000000000026,0.005654866776461629,0.008988445647770798,0.007243116395776472,0.335141955220732,0.5241043263118663,-20.4710468479244,0.28611886764947253,0.5722163316654254,24.6,0x0000,0x4056
175,6.095215541000016,adis16470,-0.00625,0.0075,0.99875,-0.0612915625,0.07354987499999999,9.7943916875,0.12400000000000001,0.21500000000000002,0.3150000000000003,0.002164208272472969,0.003752457891787809,0.005497787143782143,0.3412777828567559,0.5281335785729484,-20.460072381799336,0.43024807932067954,0.35853201673880475,24.3,0x0000,0x4056
176,6.130116557999827,adis16470,-0.0075,0.00375,0.99875,-0.07354987499999999,0.03677493749999999,9.7943916875,-0.376,0.115,0.7150000000000003,-0.006562437987498679,0.002007128639793479,0.012479104151759462,0.32589440800235486,0.5301091629199166,-20.435118088864517,0.21512707234805006,0.43024504670778424,24.3,0x0000,0x4056
177,6.164899061000142,adis16470,-0.0075,0.00625,1.00125,-0.07354987499999999,0.0612915625,9.8189083125,0.12400000000000001,0.31500000000000006,0.41500000000000026,0.002164208272472969,0.0054977871437821395,0.007243116395776472,0.3307562054935395,0.5388275911642998,-20.42068342647952,0.3576469123176653,0.4291654813742787,24.3,0x0000,0x4056
178,6.199707118999868,adis16470,-0.005,0.00625,1.0,-0.04903325,0.0612915625,9.80665,0.12400000000000001,0.115,0.3150000000000003,0.002164208272472969,0.002007128639793479,0.005497787143782143,0.33553281767186777,0.537703308991156,-20.409718935144397,0.35809395932357113,0.2864709152898976,24.3,0x0000,0x4056
179,6.234516064999752,adis16470,-0.0075,0.00875,1.0025,-0.07354987499999999,0.08580818750000001,9.831166624999998,-0.076,0.015000000000000003,0.3150000000000003,-0.0013264502315156904,0.00026179938779914946,0.005497787143782143,0.33623109265741813,0.536033382739929,-20.398754111169495,0.5000751526082065,0.4286224071550328,24.3,0x0000,0x4056
180,6.269315938000091,adis16470,-0.00875,0.00625,0.99875,-0.08580818750000001,0.0612915625,9.7943916875,-0.176,0.015000000000000003,0.41500000000000026,-0.00307177948351002,0.00026179938779914946,0.007243116395776472,0.3306750343198969,0.5358631301145902,-20.384312171344465,0.3585421253019974,0.5019428580479379,24.200000000000003,0x0000,0x4056
181,6.304131107000103,adis16470,-0.0075,0.00625,0.9975,-0.07354987499999999,0.0612915625,9.782133375,0.024000000000000007,0.21500000000000002,0.11500000000000027,0.0004188790204786392,0.003752457891787809,0.0020071286397934838,0.3320602142506918,0.5410969948480648,-20.38030842909444,0.3589914144593881,0.43077876153607486,23.900000000000002,0x0000,0x4056
182,6.338938812999913,adis16470,-0.005,0.0075,0.99875,-0.04903325,0.07354987499999999,9.7943916875,0.12400000000000001,0.115,0.015000000000000263,0.002164208272472969,0.002007128639793479,0.000261799387799154,0.33825380167633295,0.5399344204988711,-20.37978631378944,0.43024807932067954,0.286826961143315,24.3,0x0000,0x4056
183,6.373717741999826,adis16470,-0.0075,0.0075,1.0,-0.07354987499999999,0.07354987499999999,9.80665,0.024000000000000007,0.115,0.015000000000000263,0.0004188790204786392,0.002007128639793479,0.000261799387799154,0.3409009322877804,0.541649283623704,-20.379264629569445,0.42971028940104355,0.4296982047621414,24.1,0x0000,0x4056
184,6.40852546699989,adis16470,-0.00625,0.00875,1.0025,-0.0612915625,0.08580818750000001,9.831166624999998,-0.176,0.015000000000000003,0.11500000000000027,-0.00307177948351002,0.00026179938779914946,0.0020071286397934838,0.33808077718149226,0.5384717192782069,-20.375261739124408,0.5000751526082065,0.3571873752436033,23.8,0x0000,0x4056
185,6.443332358000134,adis16470,-0.00625,0.00625,0.99875,-0.0612915625,0.0612915625,9.7943916875,0.024000000000000007,0.21500000000000002,0.9150000000000004,0.0004188790204786392,0.003752457891787809,0.01596976265574812,0.33930866309045893,0.5422068067297264,-20.343413400004543,0.3585421253019974,0.35853510537573596,24.1,0x0000,0x4056
186,6.478137601000071,adis16470,-0.01,0.0075,1.00375,-0.0980665,0.07354987499999999,9.843424937499998,-0.076,0.115,0.6150000000000003,-0.0013264502315156904,0.002007128639793479,0.010733774899765132,0.3384922972038448,0.5467008655923631,-20.32200819831462,0.4281049559032857,0.5707824140522748,24.3,0x0000,0x4056
187,6.512943620999977,adis16470,-0.00375,0.00625,1.00125,-0.03677493749999999,0.0612915625,9.8189083125,-0.076,0.015000000000000003,0.3150000000000003,-0.0013264502315156904,0.00026179938779914946,0.005497787143782143,0.3362830370620491,0.5405702118000039,-20.311044301699653,0.3576469123176653,0.21458575053948123,23.900000000000002,0x0000,0x4056
188,6.547750013000041,adis16470,-0.00875,0.0075,0.9975,-0.08580818750000001,0.07354987499999999,9.782133375,-0.076,0.21500000000000002,0.6150000000000003,-0.0013264502315156904,0.003752457891787809,0.010733774899765132,0.3355807406592951,0.5471438633877418,-20.289638371234606,0.43078721700862843,0.5025674620011147,24.400000000000002,0x0000,0x4056
189,6.582556922000094,adis16470,-0.00875,0.005,1.00125,-0.08580818750000001,0.04903325,9.8189083125,0.12400000000000001,0.21500000000000002,0.5150000000000003,0.002164208272472969,0.003752457891787809,0.008988445647770803,0.3388212365934483,0.5535486618877722,-20.27171282236948,0.28611886764947253,0.5006931917016941,24.3,0x0000,0x4056
190,6.617358628000147,adis16470,-0.005,0.00875,1.00375,-0.04903325,0.08580818750000001,9.843424937499998,-0.076,0.21500000000000002,1.2150000000000003,-0.0013264502315156904,0.003752457891787809,0.02120575041173111,0.3394418278951772,0.5555183203314811,-20.22942872649466,0.4994524255793412,0.2853954111997797,24.3,0x0000,0x4056
191,6.6521654449998096,adis16470,-0.00125,0.01,0.99875,-0.0122583125,0.0980665,9.7943916875,-0.076,0.015000000000000003,2.6150000000000007,-0.0013264502315156904,0.00026179938779914946,0.04564035993965173,0.34153369541229295,0.5463537284450072,-20.13840894972502,0.5736557195024539,0.07170572947788775,24.3,0x0000,0x4056
192,6.686969206999947,adis16470,-0.0075,0.00875,1.0,-0.07354987499999999,0.08580818750000001,9.80665,0.024000000000000007,0.015000000000000003,2.115,0.0004188790204786392,0.00026179938779914946,0.03691371367968008,0.3455481154493684,0.5445321484547163,-20.064798639889617,0.5013252767618416,0.42969384111531655,24.3,0x0000,0x4056
193,6.721780061000118,adis16470,-0.01,0.005,1.0050000000000001,-0.0980665,0.04903325,9.85568325,-0.176,0.115,0.41500000000000026,-0.00307177948351002,0.002007128639793479,0.007243116395776472,0.3383340122530429,0.5489663102246067,-20.050352158719676,0.28505127758382637,0.5700813902200677,24.1,0x0000,0x4056
194,6.7565826929999275,adis16470,-0.00625,0.00875,1.0,-0.0612915625,0.08580818750000001,9.80665,-0.176,0.015000000000000003,0.41500000000000026,-0.00307177948351002,0.00026179938779914946,0.007243116395776472,0.3355910892347479,0.5456601869309784,-20.0359090896797,0.5013252767618416,0.35808025218322936,24.3,0x0000,0x4056
195,6.791366326000116,adis16470,-0.00375,0.00625,1.00125,-0.03677493749999999,0.0612915625,9.8189083125,0.12400000000000001,0.21500000000000002,0.9150000000000004,0.002164208272472969,0.003752457891787809,0.01596976265574812,0.3402591127785891,0.5463676096762881,-20.004082065484525,0.3576469123176653,0.21458575053948123,23.900000000000002,0x0000,0x4056
196,6.8262763769998855,adis16470,-0.00625,0.0025,1.0025,-0.0612915625,0.024516625,9.831166624999998,-0.076,0.115,0.21500000000000027,-0.0013264502315156904,0.002007128639793479,0.003752457891787813,0.3337114398171034,0.5465186615722352,-19.996576320669583,0.142881946987328,0.3571998694401163,24.400000000000002,0x0000,0x4056
197,6.86109650499975,adis16470,-0.0025,0.005,0.99875,-0.024516625,0.04903325,9.7943916875,-0.076,0.115,0.6150000000000003,-0.0013264502315156904,0.002007128639793479,0.010733774899765132,0.3301805282142533,0.5423808199738278,-19.975162101849374,0.28683504810786925,0.14341662546994588,24.3,0x0000,0x4056
198,6.895916835999742,adis16470,-0.00375,0.01125,0.99875,-0.03677493749999999,0.1103248125,9.7943916875,0.024000000000000007,0.115,0.41500000000000026,0.0004188790204786392,0.002007128639793479,0.007243116395776472,0.3373030288026188,0.5397597130329997,-19.96071170266435,0.6453569565684624,0.2151134261671128,24.200000000000003,0x0000,0x4056
199,6.930730741999923,adis16470,-0.0075,0.00875,0.99625,-0.07354987499999999,0.08580818750000001,9.769875062499999,0.024000000000000007,0.21500000000000002,0.5150000000000003,0.0004188790204786392,0.003752457891787809,0.008988445647770803,0.3414400353711438,0.5449260262197532,-19.942782550859388,0.5032122261169566,0.43131107282643516,24.3,0x0000,0x4056
200,6.965543591999904,adis16470,-0.00875,0.005,0.99625,-0.08580818750000001,0.04903325,9.769875062499999,0.12400000000000001,0.115,0.3150000000000003,0.002164208272472969,0.002007128639793479,0.005497787143782143,0.34459279084019895,0.5480150336982723,-19.931816497439453,0.2875548228571788,0.5032058889668959,24.1,0x0000,0x4056
201,7.000434493999819,adis16470,-0.0075,0.01,0.99875,-0.07354987499999999,0.0980665,9.7943916875,-0.176,0.115,0.3150000000000003,-0.00307177948351002,0.002007128639793479,0.005497787143782143,0.3431560537004786,0.549591476441544,-19.920825839684444,0.5736557195024539,0.430226515466683,24.1,0x0000,0x4056
202,7.035249381000085,adis16470,-0.00375,0.005,0.99625,-0.03677493749999999,0.04903325,9.769875062499999,0.024000000000000007,-0.085,1.6150000000000004,0.0004188790204786392,-0.0014835298641951802,0.02818706741970843,0.3428628765194558,0.5400128461091321,-19.86459970835422,0.2875548228571788,0.21566419325153002,24.1,0x0000,0x4056
203,7.070062638999843,adis16470,-0.0075,0.01,0.99875,-0.07354987499999999,0.0980665,9.7943916875,0.12400000000000001,-0.085,1.1150000000000002,0.002164208272472969,-0.0014835298641951802,0.019460421159736778,0.3517092291898954,0.5349171828517971,-19.82578302937941,0.5736557195024539,0.430226515466683,24.3,0x0000,0x4056
204,7.10487302599995,adis16470,-0.0075,0.00625,1.00375,-0.07354987499999999,0.0612915625,9.843424937499998,-0.176,-0.385,0.8150000000000004,-0.00307177948351002,-0.006719517620178169,0.014224433403753792,0.3458060722263671,0.5196468133273856,-19.797412563974323,0.3567561585024013,0.42809665738823705,24.3,0x0000,0x4056
205,7.139656840000043,adis16470,-0.005,0.0075,0.99875,-0.04903325,0.07354987499999999,9.7943916875,-0.276,0.115,0.7150000000000003,-0.00481710873550435,0.002007128639793479,0.012479104151759462,0.3380865560638226,0.5189105647438838,-19.772542056884454,0.43024807932067954,0.286826961143315,24.3,0x0000,0x4056
206,7.174467190000087,adis16470,-0.0075,0.00375,1.00375,-0.07354987499999999,0.03677493749999999,9.843424937499998,0.024000000000000007,0.015000000000000003,0.6150000000000003,0.0004188790204786392,0.00026179938779914946,0.010733774899765132,0.3364246706278599,0.5176061030506524,-19.75113377158442,0.21405546554562488,0.4281019683822739,24.3,0x0000,0x4056
207,7.20927450399995,adis16470,-0.00875,0.01125,1.00125,-0.08580818750000001,0.1103248125,9.8189083125,0.024000000000000007,0.115,0.7150000000000003,0.0004188790204786392,0.002007128639793479,0.012479104151759462,0.3433897590772118,0.5211901197995741,-19.726246555659376,0.6437457141753808,0.5006678331713771,24.3,0x0000,0x4056
208,7.244097686999794,adis16470,-0.0075,0.0075,1.0,-0.07354987499999999,0.07354987499999999,9.80665,0.22400000000000003,0.015000000000000003,0.9150000000000004,0.003909537524467299,0.00026179938779914946,0.01596976265574812,0.35276058730482995,0.5198721844645269,-19.694383207794285,0.42971028940104355,0.4296982047621414,24.1,0x0000,0x4056
209,7.2789349619997665,adis16470,-0.01,0.00875,1.0025,-0.0980665,0.08580818750000001,9.831166624999998,-0.376,0.115,0.3150000000000003,-0.006562437987498679,0.002007128639793479,0.005497787143782143,0.34287005978526086,0.5248306604955495,-19.683409483494255,0.5000751526082065,0.5714882513150932,24.400000000000002,0x0000,0x4056
210,7.313719313000092,adis16470,-0.00625,0.00875,1.0025,-0.0612915625,0.08580818750000001,9.831166624999998,0.22400000000000003,0.115,0.6150000000000003,0.003909537524467299,0.002007128639793479,0.010733774899765132,0.3536500021773854,0.5253979807798033,-19.662017164209296,0.5000751526082065,0.3571873752436033,24.3,0x0000,0x4056
211,7.348551681000117,adis16470,-0.005,0.00625,0.9975,-0.04903325,0.0612915625,9.782133375,-0.076,-0.085,0.41500000000000026,-0.0013264502315156904,-0.0014835298641951802,0.007243116395776472,0.35116251155799305,0.5177322572752844,-19.647561708664337,0.3589914144593881,0.2871888473484358,24.1,0x0000,0x4056
212,7.383378233999792,adis16470,-0.01,0.0075,1.00375,-0.0980665,0.07354987499999999,9.843424937499998,-0.076,0.115,0.11500000000000027,-0.0013264502315156904,0.002007128639793479,0.0020071286397934838,0.35010747877744924,0.5227182129339387,-19.64355665506932,0.4281049559032857,0.5707824140522748,24.400000000000002,0x0000,0x4056
213,7.418222879000041,adis16470,-0.01125,0.00625,1.0025,-0.1103248125,0.0612915625,9.831166624999998,-0.176,-0.085,0.5150000000000003,-0.00307177948351002,-0.0014835298641951802,0.008988445647770803,0.3442393380525412,0.5222198989172245,-19.625611643839395,0.35720098009881457,0.6429306126276361,24.3,0x0000,0x4056
214,7.453041154999937,adis16470,-0.00875,0.00625,1.0025,-0.08580818750000001,0.0612915625,9.831166624999998,-0.276,0.31500000000000006,0.5150000000000003,-0.00481710873550435,0.0054977871437821395,0.008988445647770803,0.33508091359323755,0.5325252228608701,-19.607680212644414,0.35720098009881457,0.5000654349451272,24.400000000000002,0x0000,0x4056
215,7.487866930000109,adis16470,-0.00625,0.00875,0.9975,-0.0612915625,0.08580818750000001,9.782133375,-0.176,0.115,0.3150000000000003,-0.00307177948351002,0.002007128639793479,0.005497787143782143,0.33242300680968717,0.53297990123549,-19.596707952779365,0.5025816667210311,0.3589776040060132,24.200000000000003,0x0000,0x4056
216,7.5227716469998995,adis16470,-0.00375,0.00625,1.00625,-0.03677493749999999,0.0612915625,9.8679415625,-0.176,0.21500000000000002,0.21500000000000027,-0.00307177948351002,0.003752457891787809,0.003752457891787813,0.3268727467671981,0.5339436896995561,-19.589204895894348,0.3558698306218785,0.21351953707301125,24.8,0x0000,0x4056
217,7.557599959000072,adis16470,-0.00625,0.005,0.9975,-0.0612915625,0.04903325,9.782133375,0.22400000000000003,-0.185,0.11500000000000027,0.003909537524467299,-0.0032288591161895096,0.0020071286397934838,0.3337246846694393,0.5241301875617962,-19.58519964415439,0.28719448450717,0.3589869047483341,24.3,0x0000,0x4056
218,7.592414439000095,adis16470,-0.00625,0.01,1.00125,-0.0612915625,0.0980665,9.8189083125,0.024000000000000007,0.115,0.21500000000000027,0.0004188790204786392,0.002007128639793479,0.003752457891787813,0.3393134942314651,0.5247237446120315,-19.577714555034326,0.5722234660023792,0.35762907639188946,24.700000000000003,0x0000,0x4056
219,7.627246620999813,adis16470,-0.005,0.01,1.00125,-0.04903325,0.0980665,9.8189083125,0.22400000000000003,0.21500000000000002,0.21500000000000027,0.003909537524467299,0.003752457891787809,0.003752457891787813,0.351618078845741,0.5272905260397437,-19.57022561182435,0.5722234660023792,0.2861045987087134,24.400000000000002,0x0000,0x4056
220,7.662061359999825,adis16470,-0.0075,0.0075,1.00125,-0.07354987499999999,0.07354987499999999,9.8189083125,0.22400000000000003,0.31500000000000006,0.5150000000000003,0.003909537524467299,0.0054977871437821395,0.008988445647770803,0.36081170937364654,0.5360752386597085,-19.55229605934941,0.42917384220227756,0.4291618027647562,24.3,0x0000,0x4056
221,7.696892098999797,adis16470,-0.00625,0.01,1.0,-0.0612915625,0.0980665,9.80665,0.024000000000000007,0.015000000000000003,0.41500000000000026,0.0004188790204786392,0.00026179938779914946,0.007243116395776472,0.36587346983808594,0.5330272679516066,-19.537841272369363,0.5729386976834859,0.3580760564345279,24.3,0x0000,0x4056
222,7.731754427999931,adis16470,-0.00375,0.00375,0.99875,-0.03677493749999999,0.03677493749999999,9.7943916875,0.12400000000000001,0.21500000000000002,0.21500000000000027,0.002164208272472969,0.003752457891787809,0.003752457891787813,0.36709501441723713,0.5340147304357099,-19.53034586754938,0.21512707234805006,0.21512555597747435,24.200000000000003,0x0000,0x4056
223,7.766616535000139,adis16470,-0.0075,0.01125,1.00125,-0.07354987499999999,0.1103248125,9.8189083125,0.12400000000000001,0.115,0.5150000000000003,0.002164208272472969,0.002007128639793479,0.008988445647770803,0.3768644784601686,0.5358463366949554,-19.512391853604342,0.6437457141753808,0.4291467548925877,24.200000000000003,0x0000,0x4056
224,7.801436106999972,adis16470,-0.00625,0.005,1.00125,-0.0612915625,0.04903325,9.8189083125,-0.276,0.31500000000000006,0.3150000000000003,-0.00481710873550435,0.0054977871437821395,0.005497787143782143,0.36563161357949114,0.5430310093463497,-19.501423741029267,0.28611886764947253,0.35764245308604325,23.8,0x0000,0x4056
225,7.836309803999939,adis16470,-0.01,0.0075,1.0025,-0.0980665,0.07354987499999999,9.831166624999998,-0.276,0.115,0.21500000000000027,-0.00481710873550435,0.002007128639793479,0.003752457891787813,0.35745902345893266,0.5475305748859067,-19.49392582070929,0.4286387327021102,0.5714940258448044,24.400000000000002,0x0000,0x4056
226,7.8711455749999,adis16470,-0.00625,0.0075,0.99875,-0.0612915625,0.07354987499999999,9.7943916875,-0.176,0.015000000000000003,0.41500000000000026,-0.00307177948351002,0.00026179938779914946,0.007243116395776472,0.35290632751700884,0.5442626898359612,-19.47946896785939,0.43024807932067954,0.35853201673880475,24.700000000000003,0x0000,0x4056
227,7.905965421000019,adis16470,-0.00875,0.0075,1.00125,-0.08580818750000001,0.07354987499999999,9.8189083125,-0.176,0.21500000000000002,0.015000000000000263,-0.00307177948351002,0.003752457891787809,0.000261799387799154,0.34842600182670286,0.5507276229975876,-19.47894667460939,0.42917384220227756,0.5006853886665867,23.900000000000002,0x0000,0x4056
228,7.940744990999974,adis16470,-0.00375,0.00625,1.0,-0.03677493749999999,0.0612915625,9.80665,-0.176,0.015000000000000003,-0.18499999999999975,-0.00307177948351002,0.00026179938779914946,-0.0032288591161895052,0.3426206031654461,0.5445214077005135,-19.485380871009383,0.35809395932357113,0.21485396974390472,24.400000000000002,0x0000,0x4056
229,7.975506099000086,adis16470,-0.005,0.00375,0.99875,-0.04903325,0.03677493749999999,9.7943916875,0.024000000000000007,0.115,0.21500000000000027,0.0004188790204786392,0.002007128639793479,0.003752457891787813,0.3408883146795023,0.543285221114075,-19.477907224834347,0.21512707234805006,0.28683302630260343,24.200000000000003,0x0000,0x4056
230,8.010305224000149,adis16470,-0.0075,0.00625,0.99625,-0.07354987499999999,0.0612915625,9.769875062499999,0.22400000000000003,0.115,0.5150000000000003,0.003909537524467299,0.002007128639793479,0.008988445647770803,0.34889848497497405,0.5449677604546631,-19.45998568472945,0.35944183102329696,0.4313192201996164,24.3,0x0000,0x4056
231,8.045100534000085,adis16470,-0.00375,0.00875,1.00125,-0.03677493749999999,0.08580818750000001,9.8189083125,-0.176,0.21500000000000002,0.21500000000000027,-0.00307177948351002,0.003752457891787809,0.003752457891787813,0.3459330057898492,0.5456914156032725,-19.452504689209405,0.5006994343924603,0.21458173740302552,24.400000000000002,0x0000,0x4056
232,8.079907157999969,adis16470,-0.005,0.005,1.0,-0.04903325,0.04903325,9.80665,0.024000000000000007,0.015000000000000003,0.21500000000000027,0.0004188790204786392,0.00026179938779914946,0.003752457891787813,0.34556252682934924,0.5410187027237546,-19.445021272789447,0.2864765102770745,0.2864729294475166,24.200000000000003,0x0000,0x4056
233,8.114737115000025,adis16470,0.00125,0.00625,1.00375,0.0122583125,0.0612915625,9.843424937499998,-0.076,0.31500000000000006,0.41500000000000026,-0.0013264502315156904,0.0054977871437821395,0.007243116395776472,0.34319225048665636,0.5395233788292896,-19.43056676385948,0.3567561585024013,-0.07135073376824864,23.900000000000002,0x0000,0x4056
234,8.149540499000068,adis16470,-0.00625,0.0075,1.00375,-0.0612915625,0.07354987499999999,9.843424937499998,-0.076,-0.085,0.015000000000000263,-0.0013264502315156904,-0.0014835298641951802,0.000261799387799154,0.34229835965217004,0.5329687257820201,-19.43004471533448,0.4281049559032857,0.3567462002418752,23.900000000000002,0x0000,0x4056
235,8.184338124000078,adis16470,-0.005,0.00875,1.0025,-0.04903325,0.08580818750000001,9.831166624999998,-0.076,0.015000000000000003,0.015000000000000263,-0.0013264502315156904,0.00026179938779914946,0.000261799387799154,0.34286216974194966,0.5285359007460776,-19.42952275122948,0.5000751526082065,0.28575123284008275,24.3,0x0000,0x4056
236,8.219201726999927,adis16470,-0.0075,0.00625,1.00125,-0.07354987499999999,0.0612915625,9.8189083125,0.024000000000000007,0.21500000000000002,-0.08499999999999977,0.0004188790204786392,0.003752457891787809,-0.001483529864195176,0.34397785959363086,0.5338942809018034,-19.432486168534506,0.3576469123176653,0.4291654813742787,24.1,0x0000,0x4056
237,8.254002555999705,adis16470,-0.0075,0.00875,1.00375,-0.07354987499999999,0.08580818750000001,9.843424937499998,0.12400000000000001,0.115,-0.08499999999999977,0.002164208272472969,0.002007128639793479,-0.001483529864195176,0.35131633404319146,0.535700209915029,-19.43544422947951,0.4994524255793412,0.42808869126778715,24.3,0x0000,0x4056
238,8.288804440000149,adis16470,-0.00875,0.005,1.0,-0.08580818750000001,0.04903325,9.80665,0.22400000000000003,0.21500000000000002,0.3150000000000003,0.003909537524467299,0.003752457891787809,0.005497787143782143,0.3576592431921288,0.5423453390955345,-19.4244816416896,0.2864765102770745,0.5013190106332004,24.1,0x0000,0x4056
239,8.323601083000085,adis16470,-0.00875,0.00875,0.99625,-0.08580818750000001,0.08580818750000001,9.769875062499999,-0.176,-0.085,0.3150000000000003,-0.00307177948351002,-0.0014835298641951802,0.005497787143782143,0.35456858114308165,0.5386637299214323,-19.413520705129557,0.5032122261169566,0.5031928193509926,24.3,0x0000,0x4056
240,8.358400263000021,adis16470,-0.005,0.01,1.00125,-0.04903325,0.0980665,9.8189083125,0.024000000000000007,0.31500000000000006,0.3150000000000003,0.0004188790204786392,0.0054977871437821395,0.005497787143782143,0.3597401547071444,0.5443550430499354,-19.4025589747696,0.5722234660023792,0.2861045987087134,24.3,0x0000,0x4056
241,8.393154260999836,adis16470,-0.00875,0.00875,0.99875,-0.08580818750000001,0.08580818750000001,9.7943916875,-0.176,0.115,0.41500000000000026,-0.00307177948351002,0.002007128639793479,0.007243116395776472,0.3565900295401277,0.5474233903040702,-19.388136050659458,0.5019526855752704,0.5019334241647339,24.3,0x0000,0x4056
242,8.42793362700013,adis16470,-0.00625,0.01,1.00125,-0.0612915625,0.0980665,9.8189083125,-0.376,0.21500000000000002,0.11500000000000027,-0.006562437987498679,0.003752457891787809,0.0020071286397934838,0.34808713594957263,0.5509555516289038,-19.384136404364472,0.5722234660023792,0.35762907639188946,24.200000000000003,0x0000,0x4056
243,8.462767823999911,adis16470,-0.00625,0.0075,1.0,-0.0612915625,0.07354987499999999,9.80665,-0.276,-0.085,0.3150000000000003,-0.00481710873550435,-0.0014835298641951802,0.005497787143782143,0.34029765542187823,0.5441964328407107,-19.37316364396456,0.42971028940104355,0.35808388861807694,24.3,0x0000,0x4056
244,8.497576189000029,adis16470,-0.00625,0.0075,1.00375,-0.0612915625,0.07354987499999999,9.843424937499998,0.12400000000000001,0.015000000000000003,-0.18499999999999975,0.002164208272472969,0.00026179938779914946,-0.0032288591161895052,0.34628369827024064,0.5409591092579358,-19.37960316762458,0.4281049559032857,0.3567462002418752,24.700000000000003,0x0000,0x4056
245,8.532378554999923,adis16470,-0.00375,0.00625,1.0025,-0.03677493749999999,0.0612915625,9.831166624999998,-0.276,0.115,-0.3849999999999998,-0.00481710873550435,0.002007128639793479,-0.006719517620178165,0.33708869508244915,0.5383485197528444,-19.39300208546464,0.35720098009881457,0.21431820016246528,24.3,0x0000,0x4056
246,8.567205011999704,adis16470,-0.00625,0.01,0.99875,-0.0612915625,0.0980665,9.7943916875,0.024000000000000007,-0.085,0.5150000000000003,0.0004188790204786392,-0.0014835298641951802,0.008988445647770803,0.3426391599311639,0.5318509670172878,-19.37506632672476,0.5736557195024539,0.35852415511406377,23.900000000000002,0x0000,0x4056
247,8.602056745000027,adis16470,-0.00875,0.0075,1.0,-0.08580818750000001,0.07354987499999999,9.80665,0.024000000000000007,0.015000000000000003,0.11500000000000027,0.0004188790204786392,0.00026179938779914946,0.0020071286397934838,0.3452002931168799,0.5317524903656972,-19.371058388009768,0.42971028940104355,0.5013111783028065,24.3,0x0000,0x4056
248,8.636894350000148,adis16470,-0.00875,0.01,1.0,-0.08580818750000001,0.0980665,9.80665,0.024000000000000007,0.015000000000000003,0.5150000000000003,0.0004188790204786392,0.00026179938779914946,0.008988445647770803,0.35057444036069807,0.5316555568018263,-19.353117050274633,0.5729386976834859,0.5013002136569638,24.8,0x0000,0x4056
249,8.671728140000141,adis16470,-0.0025,0.0075,1.00125,-0.024516625,0.07354987499999999,9.8189083125,0.024000000000000007,0.115,0.21500000000000027,0.0004188790204786392,0.002007128639793479,0.003752457891787813,0.35296571913832947,0.5278093400459855,-19.345627785424636,0.42917384220227756,0.14305631235982086,23.900000000000002,0x0000,0x4056
250,8.706575076999798,adis16470,-0.01,0.00875,0.99625,-0.0980665,0.08580818750000001,9.769875062499999,0.024000000000000007,0.115,0.015000000000000263,0.0004188790204786392,0.002007128639793479,0.000261799387799154,0.3567902501063754,0.5326818668521557,-19.34510508081464,0.5032122261169566,0.5750729818660753,24.200000000000003,0x0000,0x4056
251,8.741455938999934,adis16470,0.01,0.01625,1.0,0.0980665,0.1593580625,9.80665,0.12400000000000001,-0.085,0.21500000000000027,0.002164208272472969,-0.0014835298641951802,0.003752457891787813,0.3725126593175704,0.5076653906899841,-19.337605691399556,0.9309744777077542,-0.5728630718897987,24.400000000000002,0x0000,0x4056
252,8.776281210999969,adis16470,-0.00375,0.00625,0.99875,-0.03677493749999999,0.0612915625,9.7943916875,-0.176,0.21500000000000002,0.3150000000000003,-0.00307177948351002,0.003752457891787809,0.005497787143782143,0.36622658572269295,0.5091522248923264,-19.326635730719545,0.3585421253019974,0.2151228602867341,24.3,0x0000,0x4056
253,8.811139537000145,adis16470,-0.00625,0.00875,1.00125,-0.0612915625,0.08580818750000001,9.8189083125,0.024000000000000007,0.115,0.21500000000000027,0.0004188790204786392,0.002007128639793479,0.003752457891787813,0.3697359170386477,0.5100504100815285,-19.31914113107455,0.5006994343924603,0.35763325644757515,24.3,0x0000,0x4056
254,8.845961193999756,adis16470,-0.00625,0.0125,1.00375,-0.0612915625,0.122583125,9.843424937499998,0.22400000000000003,-0.085,0.21500000000000027,0.003909537524467299,-0.0014835298641951802,0.003752457891787813,0.384254893232137,0.504083346318953,-19.311654522549617,0.7134846561565669,0.35672849872644274,24.3,0x0000,0x4056
255,8.880759277999914,adis16470,-0.00375,0.00875,0.99875,-0.03677493749999999,0.08580818750000001,9.7943916875,0.024000000000000007,0.015000000000000003,0.015000000000000263,0.0004188790204786392,0.00026179938779914946,0.000261799387799154,0.38742730001468345,0.49881558756618877,-19.311132551289614,0.5019526855752704,0.2151188169406244,24.1,0x0000,0x4056
256,8.915562639999735,adis16470,-0.00625,0.005,1.0,-0.0612915625,0.04903325,9.80665,-0.076,0.115,0.015000000000000263,-0.0013264502315156904,0.002007128639793479,0.000261799387799154,0.38281614367145367,0.4999233834170527,-19.310610503649613,0.2864765102770745,0.3580894833495648,24.1,0x0000,0x4056
257,8.95036346400002,adis16470,-0.00625,0.00875,1.00125,-0.0612915625,0.08580818750000001,9.8189083125,-0.176,0.21500000000000002,0.015000000000000263,-0.00307177948351002,0.003752457891787809,0.000261799387799154,0.3791713631899048,0.5044101147051252,-19.310088491274616,0.5006994343924603,0.35763325644757515,24.3,0x0000,0x4056
258,8.985181324999758,adis16470,-0.00375,0.01,0.99875,-0.03677493749999999,0.0980665,9.7943916875,-0.076,0.115,0.5150000000000003,-0.0013264502315156904,0.002007128639793479,0.008988445647770803,0.38046780500583643,0.5025482278246233,-19.29215721663962,0.5736557195024539,0.2151162899650792,24.200000000000003,0x0000,0x4056
259,9.019983797999885,adis16470,-0.00625,0.00875,0.9975,-0.0612915625,0.08580818750000001,9.782133375,-0.076,0.015000000000000003,0.21500000000000027,-0.0013264502315156904,0.00026179938779914946,0.003752457891787813,0.38031800231835117,0.5001884100696568,-19.284674708809536,0.5025816667210311,0.3589776040060132,24.200000000000003,0x0000,0x4056
260,9.05481758399992,adis16470,-0.0025,0.0075,1.0025,-0.024516625,0.07354987499999999,9.831166624999998,0.024000000000000007,0.115,0.7150000000000003,0.0004188790204786392,0.002007128639793479,0.012479104151759462,0.382103710630347,0.4969679831741597,-19.25976845886952,0.4286387327021102,0.14287794863466152,24.3,0x0000,0x4056
261,9.089663202999873,adis16470,-0.01,0.01,0.99375,-0.0980665,0.0980665,9.7453584375,-0.176,-0.085,0.6150000000000003,-0.00307177948351002,-0.0014835298641951802,0.010733774899765132,0.3799823136810407,0.4956562427440522,-19.238338448694627,0.5765418432435272,0.5765126565930553,24.3,0x0000,0x4056
262,9.124478934999843,adis16470,-0.005,0.00375,0.99625,-0.04903325,0.03677493749999999,9.769875062499999,-0.076,0.31500000000000006,0.5150000000000003,-0.0013264502315156904,0.0054977871437821395,0.008988445647770803,0.3741029299494214,0.5022417897647339,-19.220408347229636,0.21566690934400543,0.2875527857934343,24.700000000000003,0x0000,0x4056
263,9.159329201999753,adis16470,-0.005,0.00625,1.00375,-0.04903325,0.0612915625,9.843424937499998,0.024000000000000007,0.21500000000000002,0.3150000000000003,0.0004188790204786392,0.003752457891787809,0.005497787143782143,0.3745756741174357,0.5052479314677205,-19.209430495484707,0.3567561585024013,0.2854007221114559,24.3,0x0000,0x4056
264,9.19416233999982,adis16470,-0.0025,0.00625,1.0025,-0.024516625,0.0612915625,9.831166624999998,0.12400000000000001,0.21500000000000002,0.3150000000000003,0.002164208272472969,0.003752457891787809,0.005497787143782143,0.37846110316683146,0.5053398984213386,-19.198458057014687,0.35720098009881457,0.14287917031791908,24.1,0x0000,0x4056
265,9.229004570000143,adis16470,-0.005,0.0075,1.0,-0.04903325,0.07354987499999999,9.80665,-0.276,0.015000000000000003,0.21500000000000027,-0.00481710873550435,0.00026179938779914946,0.003752457891787813,0.3700619605210286,0.5014746503059044,-19.190966977564617,0.42971028940104355,0.2864684535993897,24.3,0x0000,0x4056
266,9.263797413999782,adis16470,-0.005,0.005,0.99875,-0.04903325,0.04903325,9.7943916875,-0.176,0.31500000000000006,0.41500000000000026,-0.00307177948351002,0.0054977871437821395,0.007243116395776472,0.36239636219856386,0.5079223200316566,-19.17652797054471,0.28683504810786925,0.2868314538169541,24.1,0x0000,0x4056
267,9.298612386000059,adis16470,-0.0075,0.01125,0.99875,-0.07354987499999999,0.1103248125,9.7943916875,0.024000000000000007,0.115,0.41500000000000026,0.0004188790204786392,0.002007128639793479,0.007243116395776472,0.36887442312115887,0.5102919410202682,-19.162079741394763,0.6453569565684624,0.4302207881129472,24.3,0x0000,0x4056
268,9.333462005000001,adis16470,-0.0075,0.00875,1.00375,-0.07354987499999999,0.08580818750000001,9.843424937499998,0.024000000000000007,0.115,0.21500000000000027,0.0004188790204786392,0.002007128639793479,0.003752457891787813,0.3723056457623259,0.5125754259452348,-19.154587077394734,0.4994524255793412,0.42808869126778715,24.3,0x0000,0x4056
269,9.368289661999825,adis16470,-0.00375,0.00625,1.0,-0.03677493749999999,0.0612915625,9.80665,-0.076,0.115,0.21500000000000027,-0.0013264502315156904,0.002007128639793479,0.003752457891787813,0.3694274453844392,0.5105460779349954,-19.14709912318476,0.35809395932357113,0.21485396974390472,24.1,0x0000,0x4056
270,9.403108986000007,adis16470,-0.00375,0.00625,1.0,-0.03677493749999999,0.0612915625,9.80665,0.32400000000000007,-0.085,0.7150000000000003,0.005654866776461629,-0.0014835298641951802,0.012479104151759462,0.38025658392323936,0.5017317922461689,-19.12220335943472,0.35809395932357113,0.21485396974390472,24.200000000000003,0x0000,0x4056
271,9.437945660999958,adis16470,-0.00875,0.00625,0.99625,-0.08580818750000001,0.0612915625,9.769875062499999,-0.076,0.31500000000000006,0.5150000000000003,-0.0013264502315156904,0.0054977871437821395,0.008988445647770803,0.3772456519705844,0.5125152900189162,-19.10426246253961,0.35944183102329696,0.5032023244251983,24.3,0x0000,0x4056
272,9.472768224999982,adis16470,-0.0075,0.005,1.0,-0.07354987499999999,0.04903325,9.80665,-0.176,-0.085,0.6150000000000003,-0.00307177948351002,-0.0014835298641951802,0.010733774899765132,0.3694240603620485,0.5079583567563549,-19.0828465395548,0.2864765102770745,0.4297049183245466,24.1,0x0000,0x4056
273,9.5075954189997,adis16470,-0.0075,0.01125,1.0,-0.07354987499999999,0.1103248125,9.80665,0.12400000000000001,0.115,0.5150000000000003,0.002164208272472969,0.002007128639793479,0.008988445647770803,0.3791587885265026,0.5103178784215693,-19.06491052537481,0.6445503284728616,0.42968310039717267,24.3,0x0000,0x4056
274,9.542394614999921,adis16470,-0.00625,0.0075,1.00375,-0.0612915625,0.07354987499999999,9.843424937499998,-0.176,-0.085,0.6150000000000003,-0.00307177948351002,-0.0014835298641951802,0.010733774899765132,0.37413558173386,0.5043476888243666,-19.043509145294745,0.4281049559032857,0.3567462002418752,24.400000000000002,0x0000,0x4056
275,9.577159144999769,adis16470,-0.00625,0.00875,1.00125,-0.0612915625,0.08580818750000001,9.8189083125,-0.076,0.21500000000000002,0.41500000000000026,-0.0013264502315156904,0.003752457891787809,0.007243116395776472,0.37407759800774837,0.508738282644541,-19.029081873229725,0.5006994343924603,0.35763325644757515,24.3,0x0000,0x4056
276,9.611966098999801,adis16470,-0.00625,0.00375,1.0025,-0.0612915625,0.03677493749999999,9.831166624999998,0.024000000000000007,0.115,0.3150000000000003,0.0004188790204786392,0.002007128639793479,0.005497787143782143,0.37170115380211943,0.5096302346126861,-19.0181176707497,0.21432236513420277,0.3571984811313124,24.200000000000003,0x0000,0x4056
277,9.646773330000087,adis16470,-0.00625,0.00625,0.99875,-0.0612915625,0.0612915625,9.7943916875,-0.176,0.115,0.3150000000000003,-0.00307177948351002,0.002007128639793479,0.005497787143782143,0.36543443479272947,0.510531098621865,-19.00715341629465,0.3585421253019974,0.35853510537573596,24.3,0x0000,0x4056
278,9.681572451999727,adis16470,-0.005,0.01,0.99875,-0.04903325,0.0980665,9.7943916875,-0.176,0.115,0.3150000000000003,-0.00307177948351002,0.002007128639793479,0.005497787143782143,0.3635967080969042,0.5099787510211856,-18.99619169317976,0.5736557195024539,0.2868206717548666,24.3,0x0000,0x4056
279,9.716421366999839,adis16470,-0.0075,0.00625,1.0050000000000001,-0.07354987499999999,0.0612915625,9.85568325,0.024000000000000007,0.115,0.6150000000000003,0.0004188790204786392,0.002007128639793479,0.010733774899765132,0.364270674081542,0.5122579564969422,-18.97475948499462,0.35631244338452583,0.4275642392427251,24.200000000000003,0x0000,0x4056
280,9.751239006000105,adis16470,-0.01,0.01125,1.00375,-0.0980665,0.1103248125,9.843424937499998,-0.076,0.015000000000000003,0.21500000000000027,-0.0013264502315156904,0.00026179938779914946,0.003752457891787813,0.3672348927849195,0.5139398666725337,-18.967273692609663,0.6421424968857137,0.5707625006116525,24.3,0x0000,0x4056
281,9.786082568999973,adis16470,-0.01,0.0075,1.0025,-0.0980665,0.07354987499999999,9.831166624999998,-0.076,0.21500000000000002,0.11500000000000027,-0.0013264502315156904,0.003752457891787809,0.0020071286397934838,0.3658678168401296,0.522432500379318,-18.96326667642464,0.4286387327021102,0.5714940258448044,24.3,0x0000,0x4056
282,9.820928890999767,adis16470,-0.0025,0.00375,0.99875,-0.024516625,0.03677493749999999,9.7943916875,0.12400000000000001,0.115,0.3150000000000003,0.002164208272472969,0.002007128639793479,0.005497787143782143,0.3670875225034553,0.5187793749257521,-18.952290096649726,0.21512707234805006,0.14341741172754915,24.200000000000003,0x0000,0x4056
283,9.85577394999973,adis16470,-0.01125,0.0025,1.00125,-0.1103248125,0.024516625,9.8189083125,0.12400000000000001,0.015000000000000003,0.3150000000000003,0.002164208272472969,0.00026179938779914946,0.005497787143782143,0.36684135025875186,0.5217908839626055,-18.9413139027496,0.14306032570581104,0.6437437076681276,24.400000000000002,0x0000,0x4056
284,9.890699913999924,adis16470,-0.00875,0.01,1.0,-0.08580818750000001,0.0980665,9.80665,-0.176,0.015000000000000003,0.41500000000000026,-0.00307177948351002,0.00026179938779914946,0.007243116395776472,0.3649392479637368,0.5218944838442917,-18.926819582039624,0.5729386976834859,0.5013002136569638,24.200000000000003,0x0000,0x4056
285,9.92552406699997,adis16470,-0.00625,0.01,1.0025,-0.0612915625,0.0980665,9.831166624999998,0.12400000000000001,0.015000000000000003,0.3150000000000003,0.002164208272472969,0.00026179938779914946,0.005497787143782143,0.37330246976372705,0.5191121704484601,-18.91585003778965,0.5715100177637471,0.3571832108027726,23.900000000000002,0x0000,0x4056
286,9.960342776999823,adis16470,-0.005,0.00375,1.0025,-0.04903325,0.03677493749999999,9.831166624999998,-0.076,0.115,-0.18499999999999975,-0.0013264502315156904,0.002007128639793479,-0.0032288591161895052,0.3675295743212172,0.5183691916987812,-18.92229148877965,0.21432236513420277,0.2857601176745602,23.900000000000002,0x0000,0x4056
287,9.995185891999881,adis16470,-0.00625,0.00875,1.00125,-0.0612915625,0.08580818750000001,9.8189083125,0.024000000000000007,0.015000000000000003,-0.18499999999999975,0.0004188790204786392,0.00026179938779914946,-0.0032288591161895052,0.3710124850683987,0.5156666689598549,-18.92873749243462,0.5006994343924603,0.35763325644757515,24.3,0x0000,0x4056
