sample,time_s,sensor,accel_x_g,accel_y_g,accel_z_g,accel_x_mps2,accel_y_mps2,accel_z_mps2,gyro_x_dps,gyro_y_dps,gyro_z_dps,gyro_x_radps,gyro_y_radps,gyro_z_radps,roll_deg,pitch_deg,yaw_deg,accel_roll_deg,accel_pitch_deg,temp_c,diag_stat,prod_id
0,0.0002936030000455503,adis16470,-0.03125,0.06,0.9975,-0.3064578125,0.5883989999999999,9.782133375,-6.171,0.6280000000000001,1.061,-0.10770426814057008,0.010960667702524391,0.018517943363659837,3.442215285897377,1.791158444496849,0.0,3.442215285897377,1.791158444496849,24.3,0x0000,0x4056
1,0.5003634879999481,adis16470,-0.05375,0.12125,0.9925,-0.5271074375,1.1890563125,9.733100125,0.42900000000000027,0.028000000000000008,-0.8390000000000002,0.007487462491055678,0.0004886921905584124,-0.014643312424232429,3.722913978346118,1.830598491674366,-0.4195619895152914,6.965096771742133,3.0770594331522294,24.400000000000002,0x0000,0x4056
2,1.000424594999913,adis16470,-0.015,0.0675,0.9975,-0.14709974999999997,0.661948875,9.782133375,-3.071,0.228,0.06099999999999981,-0.05359906132874586,0.003979350694547071,0.0010646508437165377,2.220923969294554,1.9229101148742425,-0.3890586076143001,3.87125623198563,0.8595602648177681,24.1,0x0000,0x4056
3,1.5004923329997837,adis16470,-0.0225,0.07125000000000001,0.995,-0.220649625,0.6987238125,9.757616749999999,-1.471,0.128,0.1609999999999998,-0.02567379329683659,0.002234021442552742,0.0028099800957108673,1.5375319021150808,1.973022760967292,-0.3085473797962852,4.095847255629583,1.2921050227901356,24.3,0x0000,0x4056
4,2.000553774999844,adis16470,-0.01375,0.085,0.99375,-0.1348414375,0.83356525,9.7453584375,-2.471,0.32800000000000007,0.26099999999999984,-0.04312708581677988,0.005724679946541402,0.0045553093477051975,0.3936257391079492,2.1100980329102037,-0.1780319716612724,4.888871650529474,0.7898375475920999,24.3,0x0000,0x4056
5,2.5006161249998513,adis16470,-0.01875,0.08125,0.985,-0.1838746875,0.7967903125,9.659550249999999,-2.171,-0.17200000000000001,0.06099999999999981,-0.03789109806079689,-0.003001966313430247,0.0010646508437165377,-0.5838612620809733,2.005342092154548,-0.14752811633929463,4.715499045181243,1.0868336615803826,24.400000000000002,0x0000,0x4056
6,3.0006776049999644,adis16470,0.015,0.0475,0.98875,0.14709974999999997,0.465815875,9.6963251875,-0.571,0.42800000000000005,0.26099999999999984,-0.009965830028887622,0.007470009198535731,0.0045553093477051975,-0.7969997509828856,2.1576175798782606,-0.017012384303265238,2.750400755030571,-0.8681476299341919,24.3,0x0000,0x4056
7,3.500729197000055,adis16470,-0.02375,0.07125000000000001,0.9912500000000001,-0.2329079375,0.6987238125,9.7208418125,-1.271,0.228,-0.4390000000000002,-0.022183134792847926,0.003979350694547071,-0.007661995416255111,-1.3216893169658213,2.2535768192804513,-0.2365354151212588,4.111289230767395,1.3689934445239527,24.3,0x0000,0x4056
8,4.000774269999965,adis16470,-0.01375,0.05625,0.99875,-0.1348414375,0.5516240625,9.7943916875,-2.171,0.028000000000000008,-0.1390000000000002,-0.03789109806079689,0.0004886921905584124,-0.0024260076602721217,-2.2946684322154227,2.2379765913522145,-0.30604150526726404,3.223515810064036,0.787505310060544,23.900000000000002,0x0000,0x4056
9,4.500834084999951,adis16470,-0.015,0.045,0.995,-0.14709974999999997,0.44129925,9.757616749999999,-1.871,0.228,0.4609999999999998,-0.032655110304813904,0.003979350694547071,0.008045967851693855,-3.1138873168989147,2.322206907887255,-0.07551327316630466,2.589501847240921,0.8628082336532434,24.400000000000002,0x0000,0x4056
10,5.000893400000223,adis16470,-0.025,0.07,1.00125,-0.24516625,0.6864655000000001,9.8189083125,4.629,0.228,-0.2390000000000002,0.0807912910748175,0.003979350694547071,-0.004171336912266451,-0.7031507216085304,2.416032379084753,-0.19502723698033422,3.9991902038463394,1.4268277324887586,23.900000000000002,0x0000,0x4056
11,5.500966344000062,adis16470,-0.02125,0.045,1.00375,-0.2083913125,0.44129925,9.843424937499998,-6.371,0.028000000000000008,-0.039000000000000194,-0.11119492664455874,0.0004886921905584124,-0.0006806784082777919,-3.7600121215367888,2.405665589587915,-0.21453019520833466,2.5669586834893754,1.211588835298844,24.3,0x0000,0x4056
12,6.001026919000196,adis16470,-0.01625,0.0525,0.9975,-0.1593580625,0.5148491249999999,9.782133375,1.129,0.42800000000000005,-1.3390000000000002,0.019704767255015982,0.007470009198535731,-0.023369958684204075,-3.07128152626494,2.585937119929471,-0.8841083780794148,3.01278750418334,0.9320175725564775,24.3,0x0000,0x4056
13,6.501093569000204,adis16470,-0.0125,0.043750000000000004,0.99625,-0.122583125,0.4290409375,9.769875062499999,-2.271,0.228,-0.039000000000000194,-0.039636427312791225,0.003979350694547071,-0.0006806784082777919,-4.072507239469563,2.6603168582407286,-0.9036110337454049,2.514510245701381,0.7181632893272164,24.3,0x0000,0x4056
14,7.001153052000063,adis16470,-0.01625,0.0275,1.0025,-0.1593580625,0.269682875,9.831166624999998,-2.571,-0.17200000000000001,0.06099999999999981,-0.044872415068774214,-0.003001966313430247,0.0010646508437165377,-5.219566743169539,2.5413868452293342,-0.8731075023943852,1.57131062586149,0.9283041130217378,24.1,0x0000,0x4056
15,7.501217257999997,adis16470,-0.02625,0.025,0.9975,-0.25742456249999995,0.24516625,9.782133375,-5.271000000000001,0.228,0.1609999999999998,-0.09199630487262113,0.003979350694547071,0.0028099800957108673,-7.669587978624311,2.6324329081687536,-0.7925970222603704,1.435683897341741,1.5069627620312915,24.3,0x0000,0x4056
16,8.001277353000205,adis16470,-0.02625,0.02,0.98875,-0.25742456249999995,0.196133,9.6963251875,-2.171,0.32800000000000007,-0.1390000000000002,-0.03789109806079689,0.005724679946541402,-0.0024260076602721217,-8.556935796311166,2.77093238558135,-0.8621052210363259,1.1587957959348971,1.5204587879557228,24.200000000000003,0x0000,0x4056
17,8.501340263000202,adis16470,-0.015,-0.00125,0.99875,-0.14709974999999997,-0.0122583125,9.7943916875,-4.571,0.228,0.7609999999999999,-0.0797790001086608,0.003979350694547071,0.013281955607676846,-10.627306065116596,2.844456882874396,-0.48155683893915924,-0.0717093236505815,0.8604469679872003,24.1,0x0000,0x4056
18,9.001400617999934,adis16470,-0.06125,-0.04875,0.99,-0.6006573125,-0.47807418749999997,9.7085835,-3.071,0.028000000000000008,-2.6390000000000002,-0.05359906132874586,0.0004886921905584124,-0.04605923896013036,-11.97611008546705,2.872009938497473,-1.8012129410664244,-2.819105948873298,3.53602850748461,24.3,0x0000,0x4056
19,9.501467548000164,adis16470,-0.0225,0.08125,0.99375,-0.220649625,0.7967903125,9.7453584375,-3.071,-0.272,-0.33900000000000025,-0.05359906132874586,-0.004747295565424576,-0.005916666164260781,-13.148103173429627,2.707125849824892,-1.9707364337664846,4.674163711130772,1.2927291352707762,24.3,0x0000,0x4056
20,10.001529329999812,adis16470,-0.0275,-0.00375,0.995,-0.269682875,-0.03677493749999999,9.757616749999999,-2.471,0.028000000000000008,0.1609999999999998,-0.04312708581677988,0.0004886921905584124,0.0028099800957108673,-14.100394587748939,2.698367721384242,-1.8902268119234715,-0.21593784510832903,1.5831374329562746,24.200000000000003,0x0000,0x4056
21,10.501596723000148,adis16470,-0.02625,0.0,1.0,-0.25742456249999995,0.0,9.80665,-2.771,0.228,0.1609999999999998,-0.04836307357276287,0.003979350694547071,0.0028099800957108673,-15.176365692214581,2.7862092957443267,-1.8097156068065094,0.0,1.5036689017071179,24.3,0x0000,0x4056
22,11.001658913000028,adis16470,-0.0275,-0.01,1.0,-0.269682875,-0.0980665,9.80665,-12.171000000000001,0.32800000000000007,-0.1390000000000002,-0.21242402326022988,0.005724679946541402,-0.0024260076602721217,-20.848811478478744,2.9227277941048424,-1.8792240478595577,-0.5729386976834859,1.5751582094205565,24.400000000000002,0x0000,0x4056
23,11.501726252000026,adis16470,-0.16625,0.08125,0.9625,-1.6303555625,0.7967903125,9.438900625,-45.67100000000001,3.028,-0.6390000000000002,-0.7971093226783303,0.0528485697503883,-0.01115265392024377,-42.71719038518575,4.543512490948662,-2.198767870479306,4.825216927109811,9.765787284594184,24.3,0x0000,0x4056
24,12.001787054000033,adis16470,-0.05,-0.4875,0.9237500000000001,-0.4903325,-4.7807418749999995,9.0588929375,-17.971,1.328,-1.7390000000000003,-0.31365311987590094,0.023177972466484696,-0.030351275692181396,-51.226123018281235,5.158252111027595,-3.0683703845293735,-27.82241190787598,2.7406575004928175,24.6,0x0000,0x4056
25,12.501855948999946,adis16470,-0.05625,-0.5425,0.82875,-0.5516240625,-5.3201076249999995,8.1272611875,-24.171,0.128,-1.2390000000000003,-0.42186353349954936,0.002234021442552742,-0.02162462943220975,-62.711230370397175,5.182820626904099,-3.6879574428643447,-33.208770233670606,3.250237202772887,24.1,0x0000,0x4056
26,13.001917029000197,adis16470,-0.04625,-0.6825,0.73375,-0.45355756249999996,-6.693038625,7.1956294375,-14.771,0.528,-0.5390000000000001,-0.25780258381208243,0.009215338450530061,-0.009407324668249438,-69.55421080834009,5.390765377890579,-3.9574896265544455,-42.92753542331758,2.642513359103291,24.400000000000002,0x0000,0x4056
27,13.501986277000015,adis16470,-0.045,-0.77375,0.6575,-0.44129925,-7.5878954375,6.447872374999999,-12.871,0.7280000000000001,-0.33900000000000025,-0.22464132802419015,0.01270599695451872,-0.005916666164260781,-75.46369232953958,5.6904732181645,-4.127013955567448,-49.643524928516236,2.5375973191623227,24.3,0x0000,0x4056
28,14.00204576599981,adis16470,-0.05,-0.7937500000000001,0.6,-0.4903325,-7.7840284375,5.88399,-13.471000000000002,0.8280000000000001,-0.33900000000000025,-0.23511330353615617,0.01445132620651305,-0.005916666164260781,-81.61424337868382,6.039964844990388,-4.296533255854447,-52.91416450904766,2.87674467378308,24.200000000000003,0x0000,0x4056
29,14.502109718000156,adis16470,-0.02,-0.84,0.555,-0.196133,-8.237585999999999,5.442690750000001,-7.371,0.228,0.1609999999999998,-0.12864821916450203,0.003979350694547071,0.0028099800957108673,-84.72515150799524,6.0536608256725986,-4.216022798582483,-56.546690545927326,1.1380382353594702,24.3,0x0000,0x4056
30,15.002170560000195,adis16470,0.00875,-0.8200000000000001,0.63625,0.08580818750000001,-8.041453,6.2394810624999995,19.029000000000003,1.028,1.161,0.33211870336200106,0.017941984710501707,0.020263272615654165,-74.7491515602444,6.42670755037141,-3.6354531501920087,-52.19159005662468,-0.4830247556874101,24.3,0x0000,0x4056
31,15.502229234999959,adis16470,0.03875,-0.49875,0.7825,0.38000768749999997,-4.8910666875,7.673703624999999,28.929000000000002,-2.472,1.661,0.5049062993094396,-0.04314453910929983,0.028989918875625815,-59.72751771935815,5.03892359372775,-2.804853937001067,-32.5126294627326,-2.391255185247833,24.3,0x0000,0x4056
32,16.002283169999828,adis16470,-0.085,-0.07,0.97875,-0.83356525,-0.6864655000000001,9.5982586875,41.629,-0.372,-1.1390000000000002,0.7265631143127194,-0.006492624817418906,-0.019879300180215418,-38.21442095903868,4.854862738052709,-3.37441403975299,-4.090816977774455,4.950842665078471,24.400000000000002,0x0000,0x4056
33,16.502350419999857,adis16470,-0.025,0.03125,0.99875,-0.24516625,0.3064578125,9.7943916875,14.429,-0.072,0.26099999999999984,0.25183355777026184,-0.0012566370614359172,0.0045553093477051975,-30.343097175727625,4.751144315485136,-3.243895907300065,1.7921493367844947,1.4331867104170675,24.200000000000003,0x0000,0x4056
34,17.00241292999999,adis16470,-0.0475,0.3025,1.0050000000000001,-0.465815875,2.966511625,9.85568325,3.129,-0.472,-0.039000000000000194,0.05461135229490257,-0.008237954069413234,-0.0006806784082777919,-27.867807201461712,4.4766396287330865,-3.263398290278066,16.751533317823373,2.5913231449390723,24.3,0x0000,0x4056
35,17.50247858900002,adis16470,-0.08,0.22375,0.9275,-0.784532,2.1942379375,9.095667875,8.329,0.6280000000000001,-3.039,0.14536847339860773,0.010960667702524391,-0.05304055596810768,-22.957439396449526,4.790726390762119,-4.7831008092384115,13.562885865661036,4.792927084101233,24.3,0x0000,0x4056
36,18.002539783999964,adis16470,-0.00125,0.35875,0.88,-0.0122583125,3.5181356875,8.629852,18.329000000000004,0.32800000000000007,2.161,0.31990139859804073,0.005724679946541402,0.037716565135597464,-13.07241360629127,4.857158498680643,-3.702470686784716,22.179270653695635,0.07536402728260595,24.5,0x0000,0x4056
37,18.502601887999845,adis16470,0.0575,0.55125,0.835,0.563882375,5.4059158125,8.18855275,9.529,-0.872,-0.9390000000000002,0.16631242442253966,-0.015219271077390554,-0.016388641676226758,-7.472533358783082,4.2669005037345284,-4.172029245642021,33.4319801746436,-3.289076602347185,24.3,0x0000,0x4056
38,19.00266001099999,adis16470,-0.005,0.6012500000000001,0.80625,-0.04903325,5.8962483125,7.9066115625,12.229000000000001,-0.472,-0.6390000000000002,0.21343631422638656,-0.008237954069413234,-0.01115265392024377,-0.5959227373953921,3.955952798407147,-4.491565782383816,36.71323545245572,0.2848376501420518,24.400000000000002,0x0000,0x4056
39,19.502723355999933,adis16470,-0.02625,0.645,0.79,-0.25742456249999995,6.32528925,7.7472535,0.3290000000000002,0.528,0.1609999999999998,0.005742133239061347,0.009215338450530061,0.0028099800957108673,0.36182878649145217,4.165074938367176,-4.411055410763752,39.23011494212035,1.4743931221582591,24.200000000000003,0x0000,0x4056
40,20.00277931299979,adis16470,-0.0175,0.6025,0.76875,-0.17161637500000002,5.908506625,7.5388621875,-4.471,-0.072,0.3609999999999998,-0.07803367085666647,-0.0012566370614359172,0.006300638599699527,-1.0746921307458557,4.067018887450994,-4.230535752147818,38.08721309060974,1.0264645133254169,24.3,0x0000,0x4056
41,20.502845991999948,adis16470,0.02,0.68625,0.755,0.196133,6.7298135624999995,7.40402075,6.129,-1.1720000000000002,-0.1390000000000002,0.10697122985473245,-0.020455258833373544,-0.0024260076602721217,2.795807244434596,3.388858956605056,-4.300045383596793,42.268967085920394,-1.1229984113083298,24.400000000000002,0x0000,0x4056
42,21.002909357000135,adis16470,-0.03875,0.6950000000000001,0.71,-0.38000768749999997,6.81562175,6.962721499999999,4.029,0.7280000000000001,0.6609999999999999,0.07031931556285154,0.01270599695451872,0.011536626355682518,5.602111784036273,3.7225161316249915,-3.9695045033905716,44.38832452528621,2.2335115370778715,24.200000000000003,0x0000,0x4056
43,21.502977944000122,adis16470,-0.02125,0.705,0.69875,-0.2083913125,6.913688249999999,6.8523966875,0.629,0.228,0.26099999999999984,0.010978120995044333,0.003979350694547071,0.0045553093477051975,6.703424346682471,3.7843295511952753,-3.8389863798116717,45.25509973693893,1.2264113376354844,24.3,0x0000,0x4056
44,22.003039143000024,adis16470,-0.0175,0.7575000000000001,0.67375,-0.17161637500000002,7.428537375,6.607230437499999,3.7290000000000005,0.528,0.06099999999999981,0.06508332780686855,0.009215338450530061,0.0010646508437165377,9.3637637334293,3.987173226834339,-3.808482696326652,48.34886007637957,0.9889510524200823,24.3,0x0000,0x4056
45,22.503103732,adis16470,-0.01375,0.7575000000000001,0.6637500000000001,-0.1348414375,7.428537375,6.5091639375,1.9289999999999998,-0.17200000000000001,0.1609999999999998,0.033667401270970614,-0.003001966313430247,0.0028099800957108673,11.097300256263818,3.8387821525631067,-3.7279722171587,48.77393769233539,0.7821680749341996,24.3,0x0000,0x4056
46,23.003168967999954,adis16470,-0.0125,0.775,0.63625,-0.122583125,7.60015375,6.2394810624999995,-0.17099999999999982,0.228,0.1609999999999998,-0.0029845130209103002,0.003979350694547071,0.0028099800957108673,11.803855432451504,3.8880255734461127,-3.6474616573296497,50.61510863588174,0.7142204364018955,24.3,0x0000,0x4056
47,23.50323581700013,adis16470,0.03625,0.71,0.7025,0.35549106249999995,6.962721499999999,6.8891716249999995,-26.971,-0.972,-1.3390000000000002,-0.4707327525553906,-0.016964600329384884,-0.023369958684204075,-0.743686776097521,3.2923506492064964,-4.3170507945595755,45.304222518956784,-2.0785500425773433,24.3,0x0000,0x4056
48,24.003297498999927,adis16470,-0.10125,0.23500000000000001,0.87875,-0.9929233125,2.30456275,8.6175936875,-57.27100000000001,-3.2720000000000002,-7.839000000000001,-0.9995675159096726,-0.057107173125254464,-0.13681636006383552,-28.495543040327103,1.7500583752076488,-8.237022851299058,14.971991326980977,6.351391741065058,24.3,0x0000,0x4056
49,24.503364218000115,adis16470,-0.0975,-0.075,0.9925,-0.9561483749999999,-0.73549875,9.733100125,0.5290000000000004,-0.17200000000000001,3.261,0.00923279174305001,-0.003001966313430247,0.05691518690753509,-27.752815322521172,1.7426596219458594,-6.60629821405303,-4.321442744036738,5.594701283326233,24.3,0x0000,0x4056
50,25.003420716000164,adis16470,-0.0525,-0.03625,1.0025,-0.5148491249999999,-0.35549106249999995,9.831166624999998,-0.47099999999999986,-0.072,0.5609999999999999,-0.00822050077689329,-0.0012566370614359172,0.009791297103688187,-27.469991797022196,1.7324392969261864,-6.325767858903861,-2.070890265954377,2.995834267515272,24.1,0x0000,0x4056
51,25.50349012100014,adis16470,-0.015,0.005,0.9975,-0.14709974999999997,0.04903325,9.782133375,0.9290000000000003,0.228,0.06099999999999981,0.016214108751027325,0.003979350694547071,0.0010646508437165377,-26.459572135133637,1.8267569916718522,-6.295263441039868,0.28719448450717,0.861514913282805,24.3,0x0000,0x4056
52,26.00355013799981,adis16470,-0.00625,-0.01625,0.9825,-0.0612915625,-0.1593580625,9.635033625,-27.571,1.6280000000000001,1.261,-0.48120472806735665,0.02841396022246769,0.022008601867648494,-39.460673852634415,2.595321942958715,-5.664691005416793,-0.9475537233944858,0.3644222130141966,24.3,0x0000,0x4056
53,26.503620099999807,adis16470,-0.00625,-0.2975,0.92125,-0.0612915625,-2.9174783749999995,9.0343763125,-27.871,-0.17200000000000001,-1.4390000000000003,-0.4864407158233396,-0.003001966313430247,-0.025115287936198407,-52.688142124079654,2.4665213462837507,-6.38429397306176,-17.896866264083275,0.36989517475029243,25.0,0x0000,0x4056
54,27.003684433000217,adis16470,-0.04125,-0.5962500000000001,0.845,-0.4045243125,-5.8472150625,8.28661925,-3.071,0.6280000000000001,0.06099999999999981,-0.05359906132874586,0.010960667702524391,0.0010646508437165377,-53.84351300845555,2.7706324051872255,-6.353790090594764,-35.20760880597156,2.284115745975537,24.3,0x0000,0x4056
55,27.503754284000024,adis16470,-0.2325,-0.1075,1.06375,-2.280046125,-1.054214875,10.431823937499999,60.629,0.128,-4.039000000000001,1.058175672191642,0.002234021442552742,-0.07049384848805099,-23.169612626364398,3.0233180182599613,-8.3735777562522,-5.770581716745096,12.268466354440896,23.900000000000002,0x0000,0x4056
56,28.003817877000074,adis16470,-0.165,0.23,0.9550000000000001,-1.61809725,2.2555295,9.36535075,44.829,1.4280000000000002,4.761,0.782413650376538,0.024923301718479028,0.08309512568745003,-0.46645058344717055,3.8533604912072237,-5.992781074537567,13.541107082051465,9.535081360448466,24.400000000000002,0x0000,0x4056
57,28.503882118000092,adis16470,0.02125,0.37125,0.905,0.2083913125,3.6407188125,8.87501825,19.829000000000004,-2.172,-0.1390000000000002,0.34608133737795566,-0.03790855135331684,-0.0024260076602721217,9.706443425491154,2.686984873133892,-6.06229012760759,22.304468187577235,-1.2444887568016234,24.3,0x0000,0x4056
58,29.00394167500008,adis16470,-0.02625,0.53125,0.845,-0.25742456249999995,5.209782812499999,8.28661925,12.429,-0.072,0.5609999999999999,0.21692697273037523,-0.0012566370614359172,0.009791297103688187,16.246373855943958,2.6280910000174766,-5.7817579217196045,32.15750227057849,1.5064937527370426,24.200000000000003,0x0000,0x4056
59,29.50400495399981,adis16470,0.00375,0.6,0.81625,0.03677493749999999,5.88399,8.0046780625,-0.47099999999999986,3.028,3.861,-0.00822050077689329,0.0528485697503883,0.06738716241950107,16.416995082189302,4.055202114937074,-3.851004520429105,36.3184498660573,-0.2120910567154065,24.3,0x0000,0x4056
60,30.004064621999987,adis16470,0.0625,0.385,1.01875,0.612915625,3.77556025,9.9905246875,-60.77100000000001,-4.072000000000001,2.661,-1.0606540397294741,-0.07106980714120911,0.04644321139556911,-13.278521344211546,1.9128979521613514,-2.5203511643371863,20.70228614472412,-3.284507025612122,24.200000000000003,0x0000,0x4056
61,30.50413016099992,adis16470,-0.00125,-0.26,0.9475,-0.0122583125,-2.549729,9.291800875,-30.971,-0.672,0.8609999999999999,-0.5405459226351638,-0.011728612573401895,0.015027284859671175,-28.497662507986966,1.5467738350810123,-2.089793603043471,-15.344623307017997,0.07289346664552081,24.400000000000002,0x0000,0x4056
62,31.00415148000002,adis16470,0.10375000000000001,0.15875,0.99375,1.0174399375,1.5568056875,9.7453584375,20.929000000000002,-4.672000000000001,-0.8390000000000002,0.36527995914989325,-0.08154178265317509,-0.014643312424232429,-17.49056643234378,-0.8912554484224604,-2.5093103083724553,9.07622212556062,-5.886132154688909,24.5,0x0000,0x4056
63,31.504216759999963,adis16470,-0.025,-0.03625,0.9912500000000001,-0.24516625,-0.35549106249999995,9.7208418125,36.229,0.228,-1.9390000000000003,0.6323153347050257,0.003979350694547071,-0.033841934196170056,0.5719279552637653,-0.732820131760265,-3.4789392227882088,-2.094372620841366,1.4437676142629667,24.3,0x0000,0x4056
64,32.00426537500016,adis16470,-0.03125,0.43125,0.92875,-0.3064578125,4.2291178125,9.107926187499999,1.0290000000000004,0.128,0.1609999999999998,0.017959438003021657,0.002234021442552742,0.0028099800957108673,1.5628873911181143,-0.6204777451916927,-3.3984316701172776,24.907034448471762,1.748004970879022,24.400000000000002,0x0000,0x4056
65,32.504315230999964,adis16470,0.02,-0.2475,0.97375,0.196133,-2.427145875,9.549225437499999,-43.67100000000001,2.028,-0.6390000000000002,-0.7622027376384438,0.035395277230445006,-0.01115265392024377,-20.154531480400813,0.36294387943080053,-3.7179637881743086,-14.260999446547665,-1.140391248907826,24.3,0x0000,0x4056
66,33.00438449400008,adis16470,-0.15,0.07875,1.01875,-1.4709975,0.7722736874999999,9.9905246875,45.129,2.628,3.961,0.787649638132521,0.045867252742410984,0.06913249167149539,2.4533209625987253,1.8106171791401036,-1.7371818798435263,4.420208742806743,8.351444032891028,23.900000000000002,0x0000,0x4056
67,33.50444975800019,adis16470,0.615,0.63875,1.175,6.03108975,6.2639976875,11.52281375,-42.77100000000001,-0.17200000000000001,18.461,-0.7464947743704948,-0.003001966313430247,0.3222052332106731,-17.985659512349788,1.1962081269338642,7.494511328438034,28.52925579591774,-24.695290695816382,24.5,0x0000,0x4056
68,34.0045109849998,adis16470,-0.0325,0.01125,0.9975,-0.318716125,0.1103248125,9.782133375,-11.171000000000001,0.32800000000000007,-1.5390000000000001,-0.19497073074028656,0.005724679946541402,-0.026860617188192736,-23.087466263024947,1.3703431661510395,6.7249194947695115,0.6461656060315709,1.8660010554856052,24.5,0x0000,0x4056
69,34.504572156999984,adis16470,-0.0175,-0.03375,1.00125,-0.17161637500000002,-0.3309744375,9.8189083125,-17.871,0.7280000000000001,-1.8390000000000002,-0.3119077906239066,0.01270599695451872,-0.032096604944175725,-31.422204300874895,1.7197156097262865,5.805305500676129,-1.9305874411669917,1.000754144641956,24.400000000000002,0x0000,0x4056
70,35.00462008900013,adis16470,-0.02875,-0.0025,0.9975,-0.2819411875,-0.024516625,9.782133375,-2.871,0.028000000000000008,-0.2390000000000002,-0.0501084028247572,0.0004886921905584124,-0.004171336912266451,-32.203554171220574,1.7320609825894202,5.685794288469127,-0.14359814423120423,1.6509198882469551,24.200000000000003,0x0000,0x4056
71,35.504694538999956,adis16470,-0.0275,-0.005,0.995,-0.269682875,-0.04903325,9.757616749999999,1.7290000000000005,0.128,0.7609999999999999,0.030176742766981967,0.002234021442552742,0.013281955607676846,-30.717900111910367,1.7918120568841265,6.066353256837118,-0.28791606655709323,1.5831286925888113,24.3,0x0000,0x4056
72,36.00475674900008,adis16470,-0.01875,0.15,0.95625,-0.1838746875,1.4709975,9.3776090625,-70.67099999999999,-3.072,-1.1390000000000002,-1.2334416356769125,-0.05361651462126581,-0.019879300180215418,-64.55821506617684,0.27270877216689415,5.496784488573158,8.914926957147866,1.109736099545228,24.3,0x0000,0x4056
73,36.50482227400016,adis16470,-0.1275,-0.50875,1.0225,-1.2503478749999999,-4.9891331875,10.027299625,56.229,-0.5720000000000001,3.161,0.9813811851038915,-0.009983283321407566,0.055169857655540756,-36.240211932062536,0.11433844765854821,7.077495946829584,-26.452871624849205,6.370067507841374,24.700000000000003,0x0000,0x4056
74,37.00488355900006,adis16470,0.0125,0.2425,1.21,0.122583125,2.378112625,11.8660465,36.529,-0.272,4.460999999999999,0.6375513224610087,-0.004747295565424576,0.07785913793146704,-17.38743338511096,-0.03285080088519902,9.308258931701662,11.33269599269262,-0.5803382672725776,24.3,0x0000,0x4056
75,37.504950289000135,adis16470,0.10875,0.09625,0.93375,1.0664731875,0.9438900625,9.1569594375,-36.771,-2.972,-2.8390000000000004,-0.6417750192508349,-0.051871185369271475,-0.04954989746411902,-34.9422459651869,-1.6208412770363874,7.888563915114269,5.885205413774836,-6.60837112989976,24.3,0x0000,0x4056
76,38.0050128339999,adis16470,-0.045,0.02875,1.00625,-0.44129925,0.2819411875,9.8679415625,-22.371,0.528,-1.3390000000000002,-0.39044760696365144,0.009215338450530061,-0.023369958684204075,-45.17379052944087,-1.2784821059693947,7.2189826217462025,1.6365770416167182,2.559546535447959,24.3,0x0000,0x4056
77,38.505077638999865,adis16470,-0.02375,0.015,0.99625,-0.2329079375,0.14709974999999997,9.769875062499999,0.129,0.028000000000000008,0.3609999999999998,0.0022514747350726853,0.0004886921905584124,0.006300638599699527,-44.18984427154382,-1.2118809886286337,7.399506370492221,0.8626065321056936,1.365483502676576,24.1,0x0000,0x4056
78,39.00513853600023,adis16470,-0.0025,-0.0775,0.9975,-0.024516625,-0.7600153749999999,9.782133375,2.2290000000000005,-0.272,3.061,0.038903389026953616,-0.004747295565424576,0.053424528403546424,-42.30255872083977,-1.3180760456985299,8.93019022639647,-4.442626986494172,0.14316669086963835,23.900000000000002,0x0000,0x4056
79,39.505202304999784,adis16470,-0.01125,0.06375,1.0,-0.1103248125,0.6251739374999999,9.80665,0.3290000000000002,0.32800000000000007,4.061,0.005742133239061347,0.005724679946541402,0.07087782092348972,-41.222323487756576,-1.1181090322119087,10.960950471519899,3.647669835158203,0.6432446705867786,24.3,0x0000,0x4056
