sample,time_s,sensor,accel_x_g,accel_y_g,accel_z_g,accel_x_mps2,accel_y_mps2,accel_z_mps2,gyro_x_dps,gyro_y_dps,gyro_z_dps,gyro_x_radps,gyro_y_radps,gyro_z_radps,roll_deg,pitch_deg,yaw_deg,accel_roll_deg,accel_pitch_deg,temp_c,diag_stat,prod_id
0,0.00024019300008149003,adis16470,0.0,0.0,0.0,0.0,0.0,0.0,0.012,0.005,0.021000000000000005,0.00020943951023931956,8.726646259971648e-05,0.00036651914291880927,0.0,-0.0,0.0,0.0,-0.0,0.0,0x0000,0x0000
1,0.03518870700008847,adis16470,0.0,0.0,0.0,0.0,0.0,0.0,0.012,0.005,0.021000000000000005,0.00020943951023931956,8.726646259971648e-05,0.00036651914291880927,0.00041097298031796527,0.0001712387417991522,0.0007338803219963668,0.0,-0.0,0.0,0x0000,0x0000
2,0.0701124450001771,adis16470,0.0,0.0,0.0,0.0,0.0,0.0,0.012,0.005,0.021000000000000005,0.00020943951023931956,8.726646259971648e-05,0.00036651914291880927,0.0008134473068755077,0.00033893637786479487,0.0014672620830033342,0.0,-0.0,0.0,0x0000,0x0000
3,0.10499777399991217,adis16470,0.0,0.0,0.0,0.0,0.0,0.0,0.012,0.005,0.021000000000000005,0.00020943951023931956,8.726646259971648e-05,0.00036651914291880927,0.0012074261371364983,0.0005030942238068743,0.002199847398000657,0.0,-0.0,0.0,0x0000,0x0000
4,0.13981901399984054,adis16470,0.0,0.0,0.0,0.0,0.0,0.0,0.012,0.005,0.021000000000000005,0.00020943951023931956,8.726646259971648e-05,0.00036651914291880927,0.001592773209434667,0.0006636555039311112,0.0029310895320022617,0.0,-0.0,0.0,0x0000,0x0000
5,0.17463877199998024,adis16470,0.02125,0.00875,0.995,0.2083913125,0.08580818750000001,9.757616749999999,0.012,-0.29500000000000004,-16.379,0.00020943951023931956,-0.005148721293383273,-0.28586747818415126,0.012047286363776045,-0.033884437071358145,-0.5673829387929163,0.5038443697106137,-1.2234203017032501,24.3,0x0000,0x0000
6,0.20947814000010112,adis16470,0.0025,0.0125,1.0,0.024516625,0.122583125,9.80665,-0.28800000000000003,0.20500000000000002,-2.6790000000000003,-0.00502654824574367,0.003577924966588376,-0.046757370660928096,0.016296497207350408,-0.029072093388682656,-0.6607174074189002,0.7161599454704085,-0.14322796116752304,24.200000000000003,0x0000,0x4056
7,0.24429960199995548,adis16470,0.00125,0.00625,0.9975,0.0122583125,0.0612915625,9.782133375,0.012,0.20500000000000002,0.521,0.00020943951023931956,0.003577924966588376,0.009093165402890457,0.023559895075273313,-0.022930990182502782,-0.6425754642708053,0.3589914144593881,-0.07179777554151914,24.400000000000002,0x0000,0x4056
8,0.2790763439998045,adis16470,0.00125,0.005,1.0,0.0122583125,0.04903325,9.80665,-0.08800000000000001,0.005,0.921,-0.0015358897417550102,8.726646259971648e-05,0.016074482410867775,0.025819081149242362,-0.023734340180275017,-0.6105460848889442,0.2864765102770745,-0.07161879186107749,24.200000000000003,0x0000,0x4056
9,0.3139141940000627,adis16470,-0.0025,0.00625,0.995,-0.024516625,0.0612915625,9.757616749999999,-0.28800000000000003,0.10500000000000001,0.42100000000000004,-0.00502654824574367,0.0018325957145940463,0.007347836150896128,0.022667890555571765,-0.016795701339650942,-0.5958792877309201,0.3598933792425204,0.14395610214063387,24.3,0x0000,0x4056
10,0.3487423400001717,adis16470,-0.00375,0.005,0.99625,-0.03677493749999999,0.04903325,9.769875062499999,0.012,0.20500000000000002,0.32100000000000006,0.00020943951023931956,0.003577924966588376,0.005602506898901799,0.02837520819856519,-0.005149528916405425,-0.5846994528648851,0.2875548228571788,0.21566419325153002,24.3,0x0000,0x4056
11,0.38355748799995126,adis16470,0.00125,0.00875,0.99625,0.0122583125,0.08580818750000001,9.769875062499999,0.012,0.20500000000000002,0.22100000000000003,0.00020943951023931956,0.003577924966588376,0.003857177646907469,0.038281373168610563,0.0005100687986427789,-0.5770053338869315,0.5032122261169566,-0.07188649897188719,24.1,0x0000,0x4056
12,0.418426651000118,adis16470,0.0025,0.00875,1.00125,0.024516625,0.08580818750000001,9.8189083125,-0.08800000000000001,0.10500000000000001,0.42100000000000004,-0.0015358897417550102,0.0018325957145940463,0.007347836150896128,0.0445226065647541,0.0012268204088060545,-0.5623253615338658,0.5006994343924603,-0.14305486317899685,23.900000000000002,0x0000,0x4056
13,0.4533062579998841,adis16470,0.00125,0.00875,0.995,0.0122583125,0.08580818750000001,9.757616749999999,0.012,0.30500000000000005,0.12100000000000001,0.00020943951023931956,0.005323254218582706,0.002111848394913139,0.054119228181592274,0.01018831779805611,-0.5581049067018558,0.5038443697106137,-0.07197680156993758,24.1,0x0000,0x4056
14,0.4881233309997697,adis16470,0.0,0.00625,0.99875,0.0,0.0612915625,9.7943916875,-0.28800000000000003,0.30500000000000005,0.42100000000000004,-0.00502654824574367,0.005323254218582706,0.007347836150896128,0.05038094140657477,0.020391347062979747,-0.5434469577008773,0.3585421253019974,-0.0,24.3,0x0000,0x4056
15,0.5229337559999294,adis16470,-0.00125,0.0075,0.99625,-0.0122583125,0.07354987499999999,9.769875062499999,-0.08800000000000001,0.10500000000000001,0.42100000000000004,-0.0015358897417550102,0.0018325957145940463,0.007347836150896128,0.054997838440724665,0.02500324231560257,-0.5287918310839168,0.43132770753766314,0.07188723452960491,24.3,0x0000,0x4056
16,0.5577429589998246,adis16470,-0.00125,0.005,0.99625,-0.0122583125,0.04903325,9.769875062499999,0.112,0.005,0.521,0.001954768762233649,8.726646259971648e-05,0.009093165402890457,0.06346962812811824,0.02611150952541069,-0.5106562748748006,0.2875548228571788,0.07188836620095371,24.3,0x0000,0x4056
17,0.59254305200011,adis16470,0.0025,0.00375,1.0,0.024516625,0.03677493749999999,9.80665,-0.08800000000000001,0.20500000000000002,0.7210000000000001,-0.0015358897417550102,0.003577924966588376,0.012583823906879118,0.06349623895209322,0.02971585495301359,-0.485565408542915,0.2148581660301822,-0.14323814323284906,24.3,0x0000,0x4056
18,0.627342403000057,adis16470,0.0,0.00875,0.99375,0.0,0.08580818750000001,9.7453584375,0.112,0.20500000000000002,0.521,0.001954768762233649,0.003577924966588376,0.009093165402890457,0.07613544905702721,0.03611272023742778,-0.46743496542798124,0.5044781034794904,-0.0,24.1,0x0000,0x4056
19,0.6620941649998713,adis16470,0.0,0.00375,1.00125,0.0,0.03677493749999999,9.8189083125,-0.28800000000000003,0.20500000000000002,0.6210000000000001,-0.00502654824574367,0.003577924966588376,0.010838494654884788,0.06909620167375566,0.04237209461763541,-0.44585412184680756,0.21458993112939587,-0.0,24.3,0x0000,0x4056
20,0.6968614070001422,adis16470,0.0,0.005,0.99375,0.0,0.04903325,9.7453584375,-0.08800000000000001,0.20500000000000002,0.521,-0.0015358897417550102,0.003577924966588376,0.009093165402890457,0.07048151662298423,0.04850938802688401,-0.4277403981428042,0.2882782190232128,-0.0,24.400000000000002,0x0000,0x4056
21,0.7316567769998983,adis16470,0.00125,0.0025,0.9975,0.0122583125,0.024516625,9.782133375,-0.08800000000000001,0.005,0.6210000000000001,-0.0015358897417550102,8.726646259971648e-05,0.010838494654884788,0.06894310129579781,0.0462737181176026,-0.40613250814887025,0.14359814423120423,-0.07179895936716037,24.400000000000002,0x0000,0x4056
22,0.7664562579998346,adis16470,0.00125,0.00375,1.0025,0.0122583125,0.03677493749999999,9.831166624999998,-0.08800000000000001,0.005,1.021,-0.0015358897417550102,8.726646259971648e-05,0.017819811662862103,0.06884958088343499,0.044089949428917134,-0.3706022564257409,0.21432236513420277,-0.07144058475170155,24.3,0x0000,0x4056
23,0.8012915710000925,adis16470,0.00375,0.0275,1.00125,0.03677493749999999,0.269682875,9.8189083125,0.112,-0.095,2.221,0.001954768762233649,-0.0016580627893946131,0.03876376268679406,0.10276157224450917,0.03567477447631177,-0.2932323688370606,1.5732713267459326,-0.21450903830702114,24.3,0x0000,0x4056
24,0.8361034780000409,adis16470,0.0,0.02,0.9912500000000001,0.0,0.196133,9.7208418125,-0.08800000000000001,0.20500000000000002,13.721000000000002,-0.0015358897417550102,0.003577924966588376,0.239476626666142,0.12082165207100341,0.04195496880313692,0.18442028407561945,1.1558740279201767,-0.0,24.8,0x0000,0x4056
25,0.8709060330002103,adis16470,-0.01625,0.0,0.99625,-0.1593580625,0.0,9.769875062499999,0.112,0.10500000000000001,8.021,0.001954768762233649,0.0018325957145940463,0.1399928593024652,0.12222514142961587,0.06338660973430632,0.4635711365779959,0.0,0.9344781528600821,24.3,0x0000,0x4056
26,0.9057047549999879,adis16470,0.00125,0.00875,0.9975,0.0122583125,0.08580818750000001,9.782133375,-0.188,-0.095,-0.179,-0.0032812189937493396,-0.0016580627893946131,-0.00312413936106985,0.12342095539420515,0.05744318806804831,0.45734216534003574,0.5025816667210311,-0.07179642266962893,24.3,0x0000,0x4056
27,0.9405368460002137,adis16470,0.0025,0.00375,0.99375,0.024516625,0.03677493749999999,9.7453584375,-0.188,0.30500000000000005,-0.379,-0.0032812189937493396,0.005323254218582706,-0.006614797865058509,0.1188592270053121,0.06382291169349005,0.4441407327360023,0.21620946246236616,-0.14413899548118458,24.400000000000002,0x0000,0x4056
28,0.9754157500001384,adis16470,0.00375,0.01125,0.99875,0.03677493749999999,0.1103248125,9.7943916875,-0.188,0.30500000000000005,-0.079,-0.0032812189937493396,0.005323254218582706,-0.0013788101090755204,0.122963068556669,0.0686695278999555,0.44138528912900826,0.6453569565684624,-0.2151134261671128,24.3,0x0000,0x4056
29,1.0102265079999597,adis16470,0.0025,0.0075,0.995,0.024516625,0.07354987499999999,9.757616749999999,-0.08800000000000001,0.005,0.22100000000000003,-0.0015358897417550102,8.726646259971648e-05,0.003857177646907469,0.1261391424242146,0.06458761164637497,0.4490784054300132,0.4318695560060455,-0.143954852624076,24.5,0x0000,0x4056
30,1.0450121200001377,adis16470,0.00125,0.00625,1.0,0.0122583125,0.0612915625,9.80665,-0.08800000000000001,0.20500000000000002,0.22100000000000003,-0.0015358897417550102,0.003577924966588376,0.003857177646907469,0.12777832922188825,0.0688519192809348,0.45676602148299644,0.35809395932357113,-0.07161828830987142,24.400000000000002,0x0000,0x4056
31,1.0798575789999632,adis16470,0.00125,0.00625,0.99875,0.0122583125,0.0612915625,9.7943916875,0.112,0.505,1.221,0.001954768762233649,0.008813912722571364,0.021310470166850764,0.13621825293103307,0.08328578618796718,0.49931244047524825,0.3585421253019974,-0.071707919612549,24.700000000000003,0x0000,0x4056
32,1.1146860560002096,adis16470,-0.0025,0.005,0.99625,-0.024516625,0.04903325,9.769875062499999,0.112,0.505,0.42100000000000004,0.001954768762233649,0.008813912722571364,0.007347836150896128,0.14306776400188911,0.10173224107232715,0.5139752524472986,0.2875548228571788,0.1437765060630057,24.3,0x0000,0x4056
33,1.1495971770000324,adis16470,0.00375,0.0075,1.00125,0.03677493749999999,0.07354987499999999,9.8189083125,-0.188,0.005,0.22100000000000003,-0.0032812189937493396,8.726646259971648e-05,0.003857177646907469,0.14235784368282123,0.09557698297143297,0.5216906305202453,0.42917384220227756,-0.2145839111573227,24.200000000000003,0x0000,0x4056
34,1.184420691000014,adis16470,-0.00125,0.00625,0.99875,-0.0122583125,0.0612915625,9.7943916875,-0.188,0.20500000000000002,0.12100000000000001,-0.0032812189937493396,0.003577924966588376,0.002111848394913139,0.14026566554643943,0.10209562336700469,0.5259042622832751,0.3585421253019974,0.071707919612549,24.400000000000002,0x0000,0x4056
35,1.2192200389999925,adis16470,0.0,0.01,0.995,0.0,0.0980665,9.757616749999999,-0.188,0.005,0.12100000000000001,-0.0032812189937493396,8.726646259971648e-05,0.002111848394913139,0.142565299492461,0.10022422697966324,0.5301149654832419,0.5758175932449805,-0.0,24.400000000000002,0x0000,0x4056
36,1.2540149249998649,adis16470,0.00125,0.01,1.0,0.0122583125,0.0980665,9.80665,-0.188,-0.195,0.12100000000000001,-0.0032812189937493396,-0.003403392041388943,0.002111848394913139,0.14476217129336463,0.09013813173928423,0.5343251377352661,0.5729386976834859,-0.0716161063773747,24.8,0x0000,0x4056
37,1.2888071990000753,adis16470,-0.00125,0.0025,0.99875,-0.0122583125,0.024516625,9.7943916875,-0.28800000000000003,0.10500000000000001,-0.179,-0.00502654824574367,0.0018325957145940463,-0.00312413936106985,0.13491551954415834,0.0933496780341786,0.5280973172882645,0.14341842264918372,0.07170909899895411,24.3,0x0000,0x4056
38,1.3236045849998845,adis16470,0.0025,0.00625,0.99625,0.024516625,0.0612915625,9.769875062499999,0.112,0.30500000000000005,0.12100000000000001,0.001954768762233649,0.005323254218582706,0.002111848394913139,0.14322540686108015,0.0990081133978305,0.5323078009942414,0.35944183102329696,-0.14377548755037428,24.400000000000002,0x0000,0x4056
39,1.3584024699998736,adis16470,0.005,0.005,0.995,0.04903325,0.04903325,9.757616749999999,-0.188,0.30500000000000005,0.021000000000000005,-0.0032812189937493396,0.005323254218582706,0.00036651914291880927,0.13970802013762101,0.10167085130250418,0.5330385608632435,0.28791606655709323,-0.28791243147506,23.900000000000002,0x0000,0x4056
40,1.3932070959999692,adis16470,-0.00375,0.01,1.00125,-0.03677493749999999,0.0980665,9.8189083125,0.112,0.30500000000000005,-0.279,0.001954768762233649,0.005323254218582706,-0.00486946861306418,0.1521784765726739,0.11433209915648943,0.5233280911342493,0.5722234660023792,0.21457922930707612,24.400000000000002,0x0000,0x4056
41,1.4280396459998883,adis16470,-0.00125,0.00875,0.9975,-0.0122583125,0.08580818750000001,9.782133375,-0.188,0.005,-0.179,-0.0032812189937493396,8.726646259971648e-05,-0.00312413936106985,0.15276898104624126,0.11365206539615115,0.5170930546602883,0.5025816667210311,0.07179642266962893,24.3,0x0000,0x4056
42,1.4627985520000948,adis16470,0.0,0.01,0.99625,0.0,0.0980665,9.769875062499999,-0.08800000000000001,0.005,0.021000000000000005,-0.0015358897417550102,8.726646259971648e-05,0.00036651914291880927,0.15821790770688873,0.11154934209552914,0.5178229889772926,0.5750951605035052,-0.0,24.5,0x0000,0x4056
43,1.4975967519999358,adis16470,0.00125,0.005,0.995,0.0122583125,0.04903325,9.757616749999999,-0.28800000000000003,0.005,-0.079,-0.00502654824574367,8.726646259971648e-05,-0.0013788101090755204,0.1509904218355431,0.10804929300492358,0.5150739297552843,0.28791606655709323,-0.07197867584477506,24.3,0x0000,0x4056
44,1.5324221179998858,adis16470,0.0,0.00375,0.9975,0.0,0.03677493749999999,9.782133375,0.112,0.20500000000000002,0.021000000000000005,0.001954768762233649,0.003577924966588376,0.00036651914291880927,0.15610099080645923,0.11288474547406195,0.5158052647722777,0.21539665260707627,-0.0,24.1,0x0000,0x4056
45,1.5672175780000543,adis16470,0.0,0.00625,0.9975,0.0,0.0612915625,9.782133375,-0.188,-0.095,0.12100000000000001,-0.0032812189937493396,-0.0016580627893946131,0.002111848394913139,0.1537481008633931,0.10738760189685813,0.5200155041793071,0.3589914144593881,-0.0,24.3,0x0000,0x4056
46,1.6020149629998741,adis16470,0.0025,0.00625,0.99625,0.024516625,0.0612915625,9.769875062499999,0.112,0.20500000000000002,-0.079,0.001954768762233649,0.003577924966588376,-0.0013788101090755204,0.16168133655393022,0.10935513495527514,0.5172665106853221,0.35944183102329696,-0.14377548755037428,24.200000000000003,0x0000,0x4056
47,1.6368137559998104,adis16470,0.0,0.00375,0.995,0.0,0.03677493749999999,9.757616749999999,0.012,0.405,-0.079,0.00020943951023931956,0.0070685834705770355,-0.0013788101090755204,0.16317569943701832,0.12097963628617373,0.5145174133853213,0.21593784510832903,-0.0,24.200000000000003,0x0000,0x4056
48,1.67161040100018,adis16470,-0.00125,0.00625,0.995,-0.0122583125,0.0612915625,9.757616749999999,0.012,0.005,0.22100000000000003,0.00020943951023931956,8.726646259971648e-05,0.003857177646907469,0.16751926179001048,0.12017011050243892,0.5222074759083609,0.3598933792425204,0.07197816466438951,24.3,0x0000,0x4056
49,1.7063750649999747,adis16470,0.0,0.005,0.9975,0.0,0.04903325,9.782133375,-0.08800000000000001,0.10500000000000001,0.12100000000000001,-0.0015358897417550102,0.0018325957145940463,0.002111848394913139,0.1669146615347723,0.12134399232086793,0.5264140003733349,0.28719448450717,-0.0,24.400000000000002,0x0000,0x4056
50,1.7411414889998014,adis16470,0.0,0.01125,0.99375,0.0,0.1103248125,9.7453584375,-0.188,0.20500000000000002,0.521,-0.0032812189937493396,0.003577924966588376,0.009093165402890457,0.1701430810246914,0.12590168323895612,0.5445272973783493,0.6486037588909802,-0.0,24.3,0x0000,0x4056
51,1.7760067610001897,adis16470,0.005,0.04875,1.00125,0.04903325,0.47807418749999997,9.8189083125,-0.188,0.405,3.221,-0.0032812189937493396,0.0070685834705770355,0.05621705520673736,0.21606623476461032,0.13150612055583458,0.6568287539991354,2.7874808420320236,-0.28578033376080403,24.3,0x0000,0x4056
52,1.810800812999787,adis16470,0.00875,0.03875,0.99875,0.08580818750000001,0.38000768749999997,9.7943916875,-0.08800000000000001,1.305,3.9210000000000003,-0.0015358897417550102,0.022776546738526,0.06843435997069766,0.25318179261636586,0.16334251000368083,0.7932559417386249,2.2218757604900237,-0.5015753302861425,24.6,0x0000,0x4056
53,1.8455936430000293,adis16470,-0.045,-0.0175,0.99875,-0.44129925,-0.17161637500000002,9.7943916875,0.012,1.005,2.121,0.00020943951023931956,0.01754055898254301,0.03701843343479973,0.2284507531400658,0.24593100045878674,0.8670514175134434,-1.0038283328985853,2.57939682788819,24.400000000000002,0x0000,0x4056
54,1.8803899909999018,adis16470,0.0,0.0025,0.9975,0.0,0.024516625,9.782133375,-0.08800000000000001,-0.095,-1.479,-0.0015358897417550102,-0.0016580627893946131,-0.025813419636996137,0.22375286071949407,0.23777283700611695,0.815587564098538,0.14359814423120423,-0.0,24.3,0x0000,0x4056
55,1.9152190049999263,adis16470,0.0025,0.0075,1.0025,0.024516625,0.07354987499999999,9.831166624999998,-0.08800000000000001,-0.195,-0.679,-0.0015358897417550102,-0.003403392041388943,-0.011850785621041499,0.22484690958969972,0.22350396480418658,0.7919385501994856,0.4286387327021102,-0.14287794863466152,24.3,0x0000,0x4056
56,1.950032353000097,adis16470,0.0025,0.0075,0.995,0.024516625,0.07354987499999999,9.757616749999999,-0.08800000000000001,0.405,-1.7790000000000001,-0.0015358897417550102,0.0070685834705770355,-0.031049407392979126,0.22598506266361648,0.22997219119466805,0.730005671709276,0.4318695560060455,-0.143954852624076,24.200000000000003,0x0000,0x4056
57,1.9848363669998434,adis16470,-0.00625,0.01125,0.9912500000000001,-0.0612915625,0.1103248125,9.7208418125,0.912,1.105,-2.2790000000000004,0.015917402778188285,0.019285888234537342,-0.039776053652950775,0.2655765205473632,0.2702865669486951,0.650687490171167,0.6502394414604239,0.36123159347218786,24.400000000000002,0x0000,0x4056
58,2.0196825839998382,adis16470,0.005,0.0025,0.99625,0.04903325,0.024516625,9.769875062499999,0.7120000000000001,1.105,-1.2790000000000001,0.012426744274199628,0.019285888234537342,-0.022322761133007477,0.2874549944918124,0.29686494547804965,0.6061189189910113,0.14377831680557537,-0.2875539174901698,24.3,0x0000,0x4056
59,2.0544858769999337,adis16470,-0.00625,0.00875,0.9975,-0.0612915625,0.08580818750000001,9.782133375,0.112,0.405,-0.379,0.001954768762233649,0.0070685834705770355,-0.006614797865058509,0.29557752310728835,0.311920574043351,0.5929285202139711,0.5025816667210311,0.3589776040060132,24.3,0x0000,0x4056
60,2.0893854219998502,adis16470,0.0025,0.00375,1.0,0.024516625,0.03677493749999999,9.80665,0.012,-0.095,-0.979,0.00020943951023931956,-0.0016580627893946131,-0.017086773377024488,0.294373557672545,0.2995682278523367,0.5587616111190735,0.2148581660301822,-0.14323814323284906,24.3,0x0000,0x4056
61,2.12421956199978,adis16470,-0.0025,0.00625,0.99625,-0.024516625,0.0612915625,9.769875062499999,-0.28800000000000003,0.10500000000000001,-0.179,-0.00502654824574367,0.0018325957145940463,-0.00312413936106985,0.28584337215717687,0.3000367926752913,0.5525263233290841,0.35944183102329696,0.14377548755037428,24.400000000000002,0x0000,0x4056
62,2.159047700999963,adis16470,-0.00125,0.00875,0.99375,-0.0122583125,0.08580818750000001,9.7453584375,-0.188,0.005,-0.079,-0.0032812189937493396,8.726646259971648e-05,-0.0013788101090755204,0.28379935753755814,0.29564806060893695,0.5497749119610905,0.5044781034794904,0.07206733131759256,24.5,0x0000,0x4056
63,2.193867730999955,adis16470,-0.00375,0.00625,1.00125,-0.03677493749999999,0.0612915625,9.8189083125,-0.08800000000000001,0.10500000000000001,0.021000000000000005,-0.0015358897417550102,0.0018325957145940463,0.00036651914291880927,0.2822734357139319,0.29760978777708175,0.5505061310160975,0.3576469123176653,0.21458575053948123,24.200000000000003,0x0000,0x4056
64,2.2286924079999153,adis16470,-0.00125,0.00625,0.99875,-0.0122583125,0.0612915625,9.7943916875,0.112,0.005,-0.5790000000000001,0.001954768762233649,8.726646259971648e-05,-0.01010545636904717,0.2876211660532088,0.2932623913310909,0.5303426430331203,0.3585421253019974,0.071707919612549,24.200000000000003,0x0000,0x4056
65,2.2635228069998448,adis16470,-0.00625,0.01,0.99375,-0.0612915625,0.0980665,9.7453584375,-0.08800000000000001,-0.095,-2.3790000000000004,-0.0015358897417550102,-0.0016580627893946131,-0.04152138290494511,0.29039579003287314,0.29136097254619164,0.4474806836976151,0.5765418432435272,0.3603278206051604,24.200000000000003,0x0000,0x4056
66,2.298354575999838,adis16470,0.00125,0.00875,0.99875,0.0122583125,0.08580818750000001,9.7943916875,-0.08800000000000001,0.10500000000000001,-0.179,-0.0015358897417550102,0.0018325957145940463,-0.00312413936106985,0.29162304092835073,0.2876838050296077,0.44124580689159365,0.5019526855752704,-0.07170657181362397,24.3,0x0000,0x4056
67,2.333144458999868,adis16470,-0.0025,0.01,1.0,-0.024516625,0.0980665,9.80665,0.41200000000000003,0.005,-0.779,0.007190756518216638,8.726646259971648e-05,-0.013596114873035827,0.3112960720023531,0.2849652385864694,0.41414457528271004,0.5729386976834859,0.14323198897772707,24.200000000000003,0x0000,0x4056
68,2.3679871350000212,adis16470,-0.005,0.00625,1.0,-0.04903325,0.0612915625,9.80665,0.012,0.005,-0.079,0.00020943951023931956,8.726646259971648e-05,-0.0013788101090755204,0.31264178114733915,0.2851660818699387,0.41139199360869877,0.35809395932357113,0.2864709152898976,24.400000000000002,0x0000,0x4056
69,2.4028025719999277,adis16470,-0.00375,0.00875,0.9975,-0.03677493749999999,0.08580818750000001,9.782133375,-0.08800000000000001,0.10500000000000001,0.021000000000000005,-0.0015358897417550102,0.0018325957145940463,0.00036651914291880927,0.3134381003151301,0.2873530303628806,0.41212311663069945,0.5025816667210311,0.21538836612686582,24.1,0x0000,0x4056
70,2.4376065460000973,adis16470,-0.00375,0.01,0.99625,-0.03677493749999999,0.0980665,9.769875062499999,0.21200000000000002,0.6050000000000001,0.021000000000000005,0.0037000980142279792,0.010559241974565696,0.00036651914291880927,0.325902088148375,0.30655428977512533,0.41285399735470324,0.5750951605035052,0.21565604558977516,23.900000000000002,0x0000,0x4056
71,2.472419261000141,adis16470,-0.00125,0.01,0.99625,-0.0122583125,0.0980665,9.769875062499999,0.012,0.905,0.021000000000000005,0.00020943951023931956,0.01579522973054868,0.00036651914291880927,0.33129534712387276,0.3327363139183482,0.4135850643696946,0.5750951605035052,0.07188565027949964,24.3,0x0000,0x4056
72,2.5072132919999603,adis16470,-0.00125,0.01,0.99375,-0.0122583125,0.0980665,9.7453584375,0.112,0.20500000000000002,-0.179,0.001954768762233649,0.003577924966588376,-0.00312413936106985,0.3400192678033881,0.33451303417487394,0.407356936221691,0.5765418432435272,0.07206647620443365,24.3,0x0000,0x4056
73,2.5420170620000135,adis16470,-0.005,0.0075,0.9975,-0.04903325,0.07354987499999999,9.782133375,-0.08800000000000001,0.30500000000000005,0.12100000000000001,-0.0015358897417550102,0.005323254218582706,0.002111848394913139,0.33883314483322097,0.3439693644249622,0.41156819916773585,0.43078721700862843,0.2871863671037507,24.400000000000002,0x0000,0x4056
74,2.5768266109998876,adis16470,-0.00125,0.0075,1.00125,-0.0122583125,0.07354987499999999,9.8189083125,0.012,0.10500000000000001,-0.279,0.00020943951023931956,0.0018325957145940463,-0.00486946861306418,0.34104931819483925,0.3421024373641825,0.4018563559218034,0.42917384220227756,0.07152826765722609,24.3,0x0000,0x4056
75,2.6116311780001524,adis16470,-0.00375,0.00625,1.00375,-0.03677493749999999,0.0612915625,9.843424937499998,0.112,0.005,-0.079,0.001954768762233649,8.726646259971648e-05,-0.0013788101090755204,0.34518360229923056,0.33971195722928615,0.3991067965508034,0.3567561585024013,0.21405131611436504,24.3,0x0000,0x4056
76,2.646436207000079,adis16470,-0.005,0.00625,0.995,-0.04903325,0.0612915625,9.757616749999999,-0.08800000000000001,-0.095,-0.079,-0.0015358897417550102,-0.0016580627893946131,-0.0013788101090755204,0.3424762104985608,0.3354355758519221,0.39635719775878914,0.3598933792425204,0.28791038680192105,24.3,0x0000,0x4056
77,2.6813001420000546,adis16470,-0.0025,0.0075,0.9975,-0.024516625,0.07354987499999999,9.782133375,-0.188,-0.095,-0.279,-0.0032812189937493396,-0.0016580627893946131,-0.00486946861306418,0.3378190548425773,0.32835289125837175,0.3866300926548726,0.43078721700862843,0.1435940854530146,24.3,0x0000,0x4056
78,2.7161309670000264,adis16470,-0.00125,0.01125,1.0,-0.0122583125,0.1103248125,9.80665,-0.188,0.005,-0.079,-0.0032812189937493396,8.726646259971648e-05,-0.0013788101090755204,0.33753644580081943,0.32338880767072553,0.3838784560578539,0.6445503284728616,0.07161515534100256,23.900000000000002,0x0000,0x4056
79,2.7509715510000206,adis16470,-0.0025,0.00875,1.00375,-0.024516625,0.08580818750000001,9.843424937499998,-0.188,0.10500000000000001,0.12100000000000001,-0.0032812189937493396,0.0018325957145940463,0.002111848394913139,0.3343557430171226,0.3233600956182563,0.38809416224484555,0.4994524255793412,0.14269859073261912,24.3,0x0000,0x4056
80,2.785791894999875,adis16470,0.0,0.005,0.99625,0.0,0.04903325,9.769875062499999,0.112,0.10500000000000001,0.12100000000000001,0.001954768762233649,0.0018325957145940463,0.002111848394913139,0.3372415872414219,0.32047588991917075,0.39230740366182154,0.2875548228571788,-0.0,24.8,0x0000,0x4056
81,2.820635996999954,adis16470,-0.0025,0.005,0.99875,-0.024516625,0.04903325,9.7943916875,-0.28800000000000003,-0.395,0.32100000000000006,-0.00502654824574367,-0.006894050545377602,0.005602506898901799,0.32639901505641983,0.3034464950679615,0.40349240823292504,0.28683504810786925,0.14341662546994588,24.1,0x0000,0x4056
82,2.85547471100017,adis16470,0.0,0.00625,1.0,0.0,0.0612915625,9.80665,0.012,0.20500000000000002,0.22100000000000003,0.00020943951023931956,0.003577924966588376,0.003857177646907469,0.3274426169949624,0.30437665899209465,0.41119175982791667,0.35809395932357113,-0.0,24.700000000000003,0x0000,0x4056
83,2.8902429089998805,adis16470,0.0,0.005,0.99875,0.0,0.04903325,9.7943916875,-0.188,0.20500000000000002,0.22100000000000003,-0.0032812189937493396,0.003577924966588376,0.003857177646907469,0.32022479676895194,0.30527403067339676,0.418875502855855,0.28683504810786925,-0.0,23.8,0x0000,0x4056
84,2.9250790490000327,adis16470,-0.0025,0.01125,0.9975,-0.024516625,0.1103248125,9.782133375,-0.28800000000000003,0.005,-0.079,-0.00502654824574367,8.726646259971648e-05,-0.0013788101090755204,0.3169114136664664,0.3022110282135143,0.4161234346028388,0.6461656060315709,0.14358901246422248,24.400000000000002,0x0000,0x4056
85,2.959912522000195,adis16470,-0.0025,0.00375,0.99875,-0.024516625,0.03677493749999999,9.7943916875,-0.28800000000000003,0.20500000000000002,0.12100000000000001,-0.00502654824574367,0.003577924966588376,0.002111848394913139,0.3050443169777627,0.306033208042749,0.4203382893128111,0.21512707234805006,0.14341741172754915,24.3,0x0000,0x4056
86,2.9947717340000963,adis16470,-0.0025,0.0075,0.99625,-0.024516625,0.07354987499999999,9.769875062499999,-0.188,0.005,-0.079,-0.0032812189937493396,8.726646259971648e-05,-0.0013788101090755204,0.3011475132526005,0.3029588391497151,0.4175844071407938,0.43132770753766314,0.14377424273099706,24.3,0x0000,0x4056
87,3.0296250400001554,adis16470,-0.00125,0.01,0.9975,-0.0122583125,0.0980665,9.782133375,-0.08800000000000001,0.10500000000000001,0.12100000000000001,-0.0015358897417550102,0.0018325957145940463,0.002111848394913139,0.30360631585306697,0.30192196572039864,0.42180164143680227,0.5743745381882245,0.07179557716353188,23.900000000000002,0x0000,0x4056
88,3.0644370320001144,adis16470,0.0,0.0075,0.9975,0.0,0.07354987499999999,9.782133375,0.012,0.20500000000000002,0.521,0.00020943951023931956,0.003577924966588376,0.009093165402890457,0.30655932269041997,0.30287725198262067,0.4399386798908801,0.43078721700862843,-0.0,24.3,0x0000,0x4056
89,3.0992770570001085,adis16470,0.0,0.0075,1.0,0.0,0.07354987499999999,9.80665,0.012,0.505,0.8210000000000001,0.00020943951023931956,0.008813912722571364,0.014329153158873446,0.3094320604951894,0.3140620259122397,0.46854232481666686,0.42971028940104355,-0.0,24.400000000000002,0x0000,0x4056
90,3.134085769000194,adis16470,-0.0025,0.005,0.9975,-0.024516625,0.04903325,9.782133375,-0.08800000000000001,0.20500000000000002,0.42100000000000004,-0.0015358897417550102,0.003577924966588376,0.007347836150896128,0.30598541203431256,0.3176457675739325,0.4831967614146494,0.28719448450717,0.14359634028729676,24.400000000000002,0x0000,0x4056
91,3.168869556000118,adis16470,-0.00125,0.00625,0.9975,-0.0122583125,0.0612915625,9.782133375,-0.188,0.10500000000000001,0.22100000000000003,-0.0032812189937493396,0.0018325957145940463,0.003857177646907469,0.3006369739828398,0.3163080556082698,0.49088397016461854,0.3589914144593881,0.07179777554151914,24.400000000000002,0x0000,0x4056
92,3.203674896999928,adis16470,-0.00125,0.0025,0.99875,-0.0122583125,0.024516625,9.7943916875,-0.188,0.005,0.32100000000000006,-0.0032812189937493396,8.726646259971648e-05,0.005602506898901799,0.29108006342975484,0.3115866227400838,0.5020564907246391,0.14341842264918372,0.07170909899895411,24.3,0x0000,0x4056
93,3.2384804610001083,adis16470,-0.0025,0.01,0.9925,-0.024516625,0.0980665,9.733100125,0.112,0.30500000000000005,0.12100000000000001,0.001954768762233649,0.005323254218582706,0.002111848394913139,0.30062407098109534,0.3186445355986472,0.5062679548936468,0.5772679173644283,0.14431423256229742,24.400000000000002,0x0000,0x4056
94,3.2732845430000452,adis16470,-0.0025,0.00875,0.99875,-0.024516625,0.08580818750000001,9.7943916875,0.012,0.405,-0.179,0.00020943951023931956,0.0070685834705770355,-0.00312413936106985,0.305059939289058,0.32895364380936765,0.50003802403666,0.5019526855752704,0.14341291900113057,24.200000000000003,0x0000,0x4056
95,3.3080914960000882,adis16470,-0.0025,0.00125,1.0,-0.024516625,0.0122583125,9.80665,0.112,0.20500000000000002,0.32100000000000006,0.001954768762233649,0.003577924966588376,0.005602506898901799,0.30421154123546473,0.3322320609259447,0.5112110437516568,0.07161968708944809,0.14323903846331773,24.3,0x0000,0x4056
96,3.3428937449998557,adis16470,-0.0025,0.00625,0.995,-0.024516625,0.0612915625,9.757616749999999,0.012,0.005,0.32100000000000006,0.00020943951023931956,8.726646259971648e-05,0.005602506898901799,0.3057344524438485,0.32863707277033954,0.5223825656807282,0.3598933792425204,0.14395610214063387,24.5,0x0000,0x4056
97,3.3777323250001245,adis16470,0.00125,0.005,0.995,0.0122583125,0.04903325,9.757616749999999,0.012,-0.095,0.42100000000000004,0.00020943951023931956,-0.0016580627893946131,0.007347836150896128,0.3057877890493902,0.3173812652387624,0.5370497017436143,0.28791606655709323,-0.07197867584477506,24.3,0x0000,0x4056
98,3.4125467769999887,adis16470,-0.0025,0.00875,0.99875,-0.024516625,0.08580818750000001,9.7943916875,0.112,0.10500000000000001,0.021000000000000005,0.001954768762233649,0.0018325957145940463,0.00036651914291880927,0.31353231914599494,0.31748430346971646,0.5377808048366157,0.5019526855752704,0.14341291900113057,24.3,0x0000,0x4056
99,3.447351452000021,adis16470,-0.00625,0.0075,0.99875,-0.0612915625,0.07354987499999999,9.7943916875,-0.188,0.405,0.021000000000000005,-0.0032812189937493396,0.0070685834705770355,0.00036651914291880927,0.3094542449786808,0.33211918164561516,0.5385117002816167,0.43024807932067954,0.35853201673880475,24.3,0x0000,0x4056
100,3.4821624040000643,adis16470,-0.005,0.00625,0.9975,-0.04903325,0.0612915625,9.782133375,0.012,0.20500000000000002,-0.279,0.00020943951023931956,0.003577924966588376,-0.00486946861306418,0.31085436517557535,0.3382140954173781,0.5287994443946075,0.3589914144593881,0.2871888473484358,24.3,0x0000,0x4056
101,3.517040742000063,adis16470,-0.005,0.00625,0.99625,-0.04903325,0.0612915625,9.769875062499999,0.112,0.6050000000000001,-1.979,0.001954768762233649,0.010559241974565696,-0.034540065896967787,0.31565437909157656,0.3578802618197407,0.45977488497848457,0.35944183102329696,0.2875491644536691,24.1,0x0000,0x4056
102,3.551867990000119,adis16470,-0.0025,0.0125,0.99875,-0.024516625,0.122583125,9.7943916875,-0.08800000000000001,0.20500000000000002,-2.479,-0.0015358897417550102,0.003577924966588376,-0.04326671215693943,0.32067892904207423,0.36058755736782977,0.373438595801005,0.7170561722732931,0.14340719138725144,24.3,0x0000,0x4056
103,3.58666214699997,adis16470,0.0,0.0075,0.99625,0.0,0.07354987499999999,9.769875062499999,-0.188,0.10500000000000001,-0.779,-0.0032812189937493396,0.0018325957145940463,-0.013596114873035827,0.3164814394437481,0.356956119213372,0.3463339911220139,0.43132770753766314,-0.0,24.400000000000002,0x0000,0x4056
104,3.6214703209998333,adis16470,-0.00125,0.005,0.9975,-0.0122583125,0.04903325,9.782133375,-0.08800000000000001,-0.195,0.12100000000000001,-0.0015358897417550102,-0.003403392041388943,0.002111848394913139,0.31289383858984016,0.34460110973392083,0.35054578695198074,0.28719448450717,0.07179828288819508,24.900000000000002,0x0000,0x4056
105,3.656273754999802,adis16470,0.0,0.005,1.00125,0.0,0.04903325,9.8189083125,-0.188,-0.095,-0.079,-0.0032812189937493396,-0.0016580627893946131,-0.0013788101090755204,0.3059461613077703,0.33446889127855123,0.34779631858898824,0.28611886764947253,-0.0,23.900000000000002,0x0000,0x4056
106,3.691070542000034,adis16470,-0.00625,0.00875,0.99625,-0.0612915625,0.08580818750000001,9.769875062499999,-0.08800000000000001,-0.095,0.021000000000000005,-0.0015358897417550102,-0.0016580627893946131,0.00036651914291880927,0.3068906093315966,0.331728493722618,0.34852705071699736,0.5032122261169566,0.35942796852390446,24.400000000000002,0x0000,0x4056
107,3.725874549999844,adis16470,-0.00375,0.0075,1.0025,-0.03677493749999999,0.07354987499999999,9.831166624999998,-0.188,0.10500000000000001,0.021000000000000005,-0.0032812189937493396,0.0018325957145940463,0.00036651914291880927,0.3029132813651219,0.3329615836243825,0.34925793488499335,0.4286387327021102,0.21431636765182338,24.3,0x0000,0x4056
108,3.7607113899998694,adis16470,-0.00125,0.0075,0.9925,-0.0122583125,0.07354987499999999,9.733100125,-0.388,0.10500000000000001,0.021000000000000005,-0.006771877497737999,0.0018325957145940463,0.00036651914291880927,0.29226772507285176,0.33133026043949354,0.3499895128089963,0.4329573472823078,0.07215883299920645,24.1,0x0000,0x4056
109,3.7955285269999877,adis16470,-0.00125,0.00875,0.99875,-0.0122583125,0.08580818750000001,9.7943916875,-0.388,-0.095,-0.079,-0.006771877497737999,-0.0016580627893946131,-0.0013788101090755204,0.2832225633346317,0.3228963129811887,0.34723896048700703,0.5019526855752704,0.07170657181362397,24.5,0x0000,0x4056
110,3.830335145999925,adis16470,-0.00375,0.00625,0.995,-0.03677493749999999,0.0612915625,9.757616749999999,-0.08800000000000001,0.10500000000000001,0.22100000000000003,-0.0015358897417550102,0.0018325957145940463,0.003857177646907469,0.2817542663166522,0.3243386482025356,0.35493119897594877,0.3598933792425204,0.21593358524489034,24.200000000000003,0x0000,0x4056
111,3.8651449499998307,adis16470,-0.00625,0.0075,0.9975,-0.0612915625,0.07354987499999999,9.782133375,-0.08800000000000001,0.10500000000000001,0.12100000000000001,-0.0015358897417550102,0.0018325957145940463,0.002111848394913139,0.2817329310243861,0.3286134256197857,0.35914318078298474,0.43078721700862843,0.3589812678485091,24.400000000000002,0x0000,0x4056
112,3.8999491989998205,adis16470,-0.0025,0.0075,1.0025,-0.024516625,0.07354987499999999,9.831166624999998,0.012,0.10500000000000001,0.12100000000000001,0.00020943951023931956,0.0018325957145940463,0.002111848394913139,0.28508034480273753,0.32848007134705604,0.3633544926129528,0.4286387327021102,0.14287794863466152,24.400000000000002,0x0000,0x4056
113,3.9347568180000962,adis16470,-0.00375,0.00625,1.0,-0.03677493749999999,0.0612915625,9.80665,-0.188,0.10500000000000001,0.021000000000000005,-0.0032812189937493396,0.0018325957145940463,0.00036651914291880927,0.2801276613685434,0.3297892533101214,0.36408545261195857,0.35809395932357113,0.21485396974390472,24.3,0x0000,0x4056
114,3.969561289000012,adis16470,0.0,0.00625,0.9975,0.0,0.0612915625,9.782133375,0.21200000000000002,0.30500000000000005,-0.179,0.0037000980142279792,0.005323254218582706,-0.00312413936106985,0.28893591332530283,0.3335965246257938,0.35785545230297366,0.3589914144593881,-0.0,24.3,0x0000,0x4056
115,4.004362742000012,adis16470,-0.0025,0.0075,0.99875,-0.024516625,0.07354987499999999,9.7943916875,-0.188,0.005,-0.079,-0.0032812189937493396,8.726646259971648e-05,-0.0013788101090755204,0.2853503369444904,0.32996340883479597,0.35510613751597364,0.43024807932067954,0.14341437909090402,24.3,0x0000,0x4056
116,4.039177898000162,adis16470,-0.00375,0.00625,0.9975,-0.03677493749999999,0.0612915625,9.782133375,-0.28800000000000003,0.20500000000000002,0.22100000000000003,-0.00502654824574367,0.003577924966588376,0.003857177646907469,0.2769969237850398,0.3346663576085229,0.3628002909699647,0.3589914144593881,0.21539242469155281,24.400000000000002,0x0000,0x4056
117,4.074072993999835,adis16470,-0.0025,0.00875,0.9975,-0.024516625,0.08580818750000001,9.782133375,0.012,-0.095,0.22100000000000003,0.00020943951023931956,-0.0016580627893946131,0.003857177646907469,0.2819189932517591,0.32759608387371014,0.37051226276995547,0.5025816667210311,0.14359261986769054,24.1,0x0000,0x4056
118,4.108891405000122,adis16470,-0.00625,0.005,0.99875,-0.0612915625,0.04903325,9.7943916875,-0.28800000000000003,-0.095,0.021000000000000005,-0.00502654824574367,-0.0016580627893946131,0.00036651914291880927,0.27219031222847423,0.324973369007941,0.37124343852296193,0.28683504810786925,0.3585376325016893,24.1,0x0000,0x4056
119,4.143746888999885,adis16470,0.0025,0.00625,0.9975,0.024516625,0.0612915625,9.782133375,0.012,-0.095,-0.079,0.00020943951023931956,-0.0016580627893946131,-0.0013788101090755204,0.2743362352000505,0.3123569461107238,0.36848985236397563,0.3589914144593881,-0.14359532559872493,24.3,0x0000,0x4056
120,4.178519968999808,adis16470,-0.00625,0.00625,0.99875,-0.0612915625,0.0612915625,9.7943916875,0.21200000000000002,0.005,-0.779,0.0037000980142279792,8.726646259971648e-05,-0.013596114873035827,0.2832447773544351,0.31345089666282466,0.3414017383358794,0.3585421253019974,0.35853510537573596,24.400000000000002,0x0000,0x4056
121,4.213332843999979,adis16470,-0.00375,0.00625,0.9975,-0.03677493749999999,0.0612915625,9.782133375,-0.388,0.005,-0.079,-0.006771877497737999,8.726646259971648e-05,-0.0013788101090755204,0.27152247657554635,0.3116603101295975,0.33865152413390687,0.3589914144593881,0.21539242469155281,24.700000000000003,0x0000,0x4056
122,4.2481580329999815,adis16470,-0.00375,0.00625,0.99875,-0.03677493749999999,0.0612915625,9.7943916875,0.012,0.10500000000000001,0.6210000000000001,0.00020943951023931956,0.0018325957145940463,0.010838494654884788,0.2736724159483191,0.3133130921173732,0.3602780813881057,0.3585421253019974,0.2151228602867341,24.1,0x0000,0x4056
123,4.282976610999867,adis16470,-0.0025,0.00625,0.9975,-0.024516625,0.0612915625,9.782133375,0.012,0.30500000000000005,0.6210000000000001,0.00020943951023931956,0.005323254218582706,0.010838494654884788,0.2757882650065383,0.32032607610694397,0.3819005561879888,0.3589914144593881,0.14359532559872493,24.400000000000002,0x0000,0x4056
124,4.317845649999981,adis16470,-0.0025,0.0075,1.0,-0.024516625,0.07354987499999999,9.80665,0.112,0.30500000000000005,0.32100000000000006,0.001954768762233649,0.005323254218582706,0.005602506898901799,0.2826939088240282,0.32720655180538305,0.39309345222298797,0.42971028940104355,0.14323512195393542,24.400000000000002,0x0000,0x4056
125,4.352671838999868,adis16470,-0.00375,0.00875,0.99375,-0.03677493749999999,0.08580818750000001,9.7453584375,0.012,0.005,0.32100000000000006,0.00020943951023931956,8.726646259971648e-05,0.005602506898901799,0.2875391486997761,0.3251570907318359,0.4042726588919516,0.5044781034794904,0.21620108182305584,24.200000000000003,0x0000,0x4056
126,4.387538599999971,adis16470,-0.00125,0.00875,1.00125,-0.0122583125,0.08580818750000001,9.8189083125,-0.08800000000000001,-0.195,0.22100000000000003,-0.0015358897417550102,-0.003403392041388943,0.003857177646907469,0.28879544968816995,0.31342147226182376,0.41197820091800236,0.5006994343924603,0.07152754306342628,24.6,0x0000,0x4056
127,4.422365030000037,adis16470,-0.00125,0.00875,1.0,-0.0122583125,0.08580818750000001,9.80665,-0.28800000000000003,0.005,0.12100000000000001,-0.00502654824574367,8.726646259971648e-05,0.002111848394913139,0.2832166241835267,0.3087560314160595,0.41619220342501806,0.5013252767618416,0.0716169455585803,24.200000000000003,0x0000,0x4056
128,4.4571481660000245,adis16470,-0.00625,0.00875,0.9975,-0.0612915625,0.08580818750000001,9.782133375,0.21200000000000002,0.20500000000000002,-0.079,0.0037000980142279792,0.003577924966588376,-0.0013788101090755204,0.2948304344659453,0.31674836113904753,0.4134443489530224,0.5025816667210311,0.3589776040060132,24.3,0x0000,0x4056
129,4.49198166899987,adis16470,-0.005,0.0075,0.995,-0.04903325,0.07354987499999999,9.757616749999999,-0.08800000000000001,-0.095,-0.179,-0.0015358897417550102,-0.0016580627893946131,-0.00312413936106985,0.2945671563665279,0.31292853178201147,0.40720911199906523,0.4318695560060455,0.28790788781613086,24.400000000000002,0x0000,0x4056
130,4.526828319999822,adis16470,-0.0025,0.01,0.9975,-0.024516625,0.0980665,9.782133375,-0.188,0.005,-2.3790000000000004,-0.0032812189937493396,8.726646259971648e-05,-0.04152138290494511,0.2937431638396223,0.30971252813223993,0.32430901729332906,0.5743745381882245,0.14359092886346206,24.3,0x0000,0x4056
131,4.561634416999823,adis16470,-0.005,0.0075,0.9975,-0.04903325,0.07354987499999999,9.782133375,0.112,0.005,-1.3790000000000002,0.001954768762233649,8.726646259971648e-05,-0.02406809038500181,0.30030434586526455,0.3094325540617711,0.27631161362205114,0.43078721700862843,0.2871863671037507,24.3,0x0000,0x4056
132,4.5964670690000275,adis16470,-0.0075,0.0025,1.0025,-0.07354987499999999,0.024516625,9.831166624999998,-0.488,-0.095,-3.1790000000000003,-0.008517206749732328,-0.0016580627893946131,-0.05548401692089974,0.28049746822393296,0.3085737189750069,0.165578199643434,0.142881946987328,0.4286373999344641,24.400000000000002,0x0000,0x4056
133,4.631295886999851,adis16470,-0.00125,0.00625,0.9975,-0.0122583125,0.0612915625,9.782133375,-0.08800000000000001,0.20500000000000002,-4.579000000000001,-0.0015358897417550102,0.003577924966588376,-0.07991862644882036,0.27906370824579463,0.3108353134595613,0.006096955022162176,0.3589914144593881,0.07179777554151914,24.3,0x0000,0x4056
134,4.666143501000079,adis16470,-0.00125,0.0075,0.995,-0.0122583125,0.07354987499999999,9.757616749999999,-0.188,0.10500000000000001,-2.579,-0.0032812189937493396,0.0018325957145940463,-0.045012041408933764,0.2756995077987275,0.3096439735588511,-0.08377494348228849,0.4318695560060455,0.07197753990315267,24.5,0x0000,0x4056
135,4.7009469879999415,adis16470,-0.0025,0.01,0.9975,-0.024516625,0.0980665,9.782133375,0.112,0.10500000000000001,-3.7790000000000004,0.001954768762233649,0.0018325957145940463,-0.06595599243286572,0.2854930289319505,0.30990418190753677,-0.2152969694080497,0.5743745381882245,0.14359092886346206,24.3,0x0000,0x4056
136,4.735769009999785,adis16470,0.0,0.00375,1.0,0.0,0.03677493749999999,9.80665,0.31200000000000006,0.505,-3.6790000000000003,0.005445427266222309,0.008813912722571364,-0.06421066318087139,0.2947275302432444,0.3209395446716658,-0.3434073943706425,0.2148581660301822,-0.0,24.3,0x0000,0x4056
137,4.770576292999976,adis16470,-0.00375,0.0075,0.9975,-0.03677493749999999,0.07354987499999999,9.782133375,0.112,0.6050000000000001,-1.479,0.001954768762233649,0.010559241974565696,-0.025813419636996137,0.30126916729952613,0.33946578122146,-0.3948873112048313,0.43078721700862843,0.21539056448759233,23.900000000000002,0x0000,0x4056
138,4.8053763900002195,adis16470,-0.005,0.01375,1.0,-0.04903325,0.1348414375,9.80665,-0.08800000000000001,0.30500000000000005,-0.079,-0.0015358897417550102,0.005323254218582706,-0.0013788101090755204,0.30799797483254915,0.3488071868225068,-0.3976365145228246,0.7877673250543098,0.2864494335850681,24.200000000000003,0x0000,0x4056
139,4.840183710000019,adis16470,-0.00375,0.00625,1.00125,-0.03677493749999999,0.0612915625,9.8189083125,-0.28800000000000003,0.10500000000000001,0.12100000000000001,-0.00502654824574367,0.0018325957145940463,0.002111848394913139,0.2991668940961534,0.34970444645115284,-0.39342481101581683,0.3576469123176653,0.21458575053948123,24.400000000000002,0x0000,0x4056
140,4.8749878809999245,adis16470,0.03375,0.01,1.00375,0.3309744375,0.0980665,9.843424937499998,-0.188,0.005,-1.8790000000000002,-0.0032812189937493396,8.726646259971648e-05,-0.032794736644973455,0.29818722294175587,0.30436715467292597,-0.4588216416342611,0.5707983463055499,-1.925687137405116,24.3,0x0000,0x4056
141,4.909828346999802,adis16470,-0.0025,0.00625,0.99875,-0.024516625,0.0612915625,9.7943916875,0.012,0.005,-0.179,0.00020943951023931956,8.726646259971648e-05,-0.00312413936106985,0.29980404638615926,0.30131884278669313,-0.4650581081392392,0.3585421253019974,0.14341561458631422,24.400000000000002,0x0000,0x4056
142,4.9446503879999,adis16470,-0.0025,0.00625,0.99625,-0.024516625,0.0612915625,9.769875062499999,-0.188,-0.095,0.22100000000000003,-0.0032812189937493396,-0.0016580627893946131,0.003857177646907469,0.29458119606193567,0.29492604710956355,-0.4573624452552316,0.35944183102329696,0.14377548755037428,24.3,0x0000,0x4056
143,4.979495502000191,adis16470,-0.00375,0.00625,0.99625,-0.03677493749999999,0.0612915625,9.769875062499999,-0.188,0.10500000000000001,0.32100000000000006,-0.0032812189937493396,0.0018325957145940463,0.005602506898901799,0.28945853113972786,0.29692634942540636,-0.44617713958610095,0.35944183102329696,0.21566266549460805,24.6,0x0000,0x4056
144,5.014308877000076,adis16470,-0.0025,0.00875,0.99875,-0.024516625,0.08580818750000001,9.7943916875,0.112,-0.095,0.6210000000000001,0.001954768762233649,-0.0016580627893946131,0.010838494654884788,0.29752951599962724,0.2906149677074306,-0.4245581144411657,0.5019526855752704,0.14341291900113057,24.400000000000002,0x0000,0x4056
145,5.049119473999781,adis16470,0.00125,0.00625,1.00125,0.0122583125,0.0612915625,9.8189083125,-0.08800000000000001,0.10500000000000001,0.7210000000000001,-0.0015358897417550102,0.0018325957145940463,0.012583823906879118,0.29572980925193254,0.2869540877917076,-0.39945976773437075,0.3576469123176653,-0.07152888079225685,24.1,0x0000,0x4056
146,5.084154041000147,adis16470,-0.0025,0.0025,1.0,-0.024516625,0.024516625,9.80665,0.112,-0.095,0.521,0.001954768762233649,-0.0016580627893946131,0.009093165402890457,0.2965255994605228,0.2808178843614526,-0.38120576478026247,0.14323915036830656,0.14323870274992495,24.400000000000002,0x0000,0x4056
147,5.1190592600000855,adis16470,-0.0075,0.01,0.99875,-0.07354987499999999,0.0980665,9.7943916875,-0.08800000000000001,0.005,-0.079,-0.0015358897417550102,8.726646259971648e-05,-0.0013788101090755204,0.2990581130688859,0.283977084755857,-0.3839631513132584,0.5736557195024539,0.430226515466683,24.3,0x0000,0x4056
148,5.153950941999938,adis16470,-0.00375,0.0075,0.99625,-0.03677493749999999,0.07354987499999999,9.769875062499999,-0.28800000000000003,0.005,0.021000000000000005,-0.00502654824574367,8.726646259971648e-05,0.00036651914291880927,0.29185565038219574,0.28278172872384577,-0.3832304240382535,0.43132770753766314,0.21566079828023904,24.400000000000002,0x0000,0x4056
149,5.188786664999952,adis16470,0.0,0.01,1.0,0.0,0.0980665,9.80665,-0.08800000000000001,-0.195,0.6210000000000001,-0.0015358897417550102,-0.003403392041388943,0.010838494654884788,0.2944730882355958,0.2704690088873004,-0.36159750960735604,0.5729386976834859,-0.0,24.8,0x0000,0x4056
150,5.2237059569997655,adis16470,-0.00125,0.00625,0.9975,-0.0122583125,0.0612915625,9.782133375,0.012,-0.5950000000000001,0.921,0.00020943951023931956,-0.010384709049366262,0.016074482410867775,0.2961741056339895,0.24613414505529374,-0.3294368416755281,0.3589914144593881,0.07179777554151914,24.3,0x0000,0x4056
151,5.258641563999845,adis16470,-0.00125,0.00625,0.99625,-0.0122583125,0.0612915625,9.769875062499999,0.012,-0.095,0.521,0.00020943951023931956,-0.0016580627893946131,0.009093165402890457,0.29785030288009656,0.23939671428132514,-0.3112353904284867,0.35944183102329696,0.07188785694223293,24.3,0x0000,0x4056
152,5.293512376999843,adis16470,-0.00125,0.0075,1.00375,-0.0122583125,0.07354987499999999,9.843424937499998,0.012,-0.095,1.021,0.00020943951023931956,-0.0016580627893946131,0.017819811662862103,0.3008654758311988,0.23278931669886924,-0.2756323659096186,0.4281049559032857,0.07135012520292895,24.400000000000002,0x0000,0x4056
153,5.328398929999821,adis16470,-0.00375,0.00625,1.0,-0.03677493749999999,0.0612915625,9.80665,0.112,0.005,0.6210000000000001,0.001954768762233649,8.726646259971648e-05,0.010838494654884788,0.3058391997049187,0.2326015541438714,-0.25396778172043494,0.35809395932357113,0.21485396974390472,24.1,0x0000,0x4056
154,5.363242282000101,adis16470,0.0,0.00625,0.99625,0.0,0.0612915625,9.769875062499999,-0.28800000000000003,0.30500000000000005,0.7210000000000001,-0.00502654824574367,0.005323254218582706,0.012583823906879118,0.2970770700253589,0.2383641952947018,-0.22884573862741606,0.35944183102329696,-0.0,24.3,0x0000,0x4056
155,5.398113706000004,adis16470,-0.0025,0.00625,1.0025,-0.024516625,0.0612915625,9.831166624999998,0.112,0.005,0.8210000000000001,0.001954768762233649,8.726646259971648e-05,0.014329153158873446,0.3021070337493483,0.23662536468456435,-0.20021631430171308,0.35720098009881457,0.14287917031791908,24.3,0x0000,0x4056
156,5.433007648000057,adis16470,-0.00375,0.00625,1.00375,-0.03677493749999999,0.0612915625,9.843424937499998,-0.08800000000000001,0.10500000000000001,1.021,-0.0015358897417550102,0.0018325957145940463,0.017819811662862103,0.30019076113398196,0.23976447219719305,-0.16458958114138866,0.3567561585024013,0.21405131611436504,24.400000000000002,0x0000,0x4056
157,5.467878423999991,adis16470,0.02125,0.0125,0.99875,0.2083913125,0.122583125,9.7943916875,-0.188,0.30500000000000005,2.821,-0.0032812189937493396,0.005323254218582706,0.04923573819876004,0.302103484403432,0.2210164504002942,-0.0662192264227531,0.7170561722732931,-1.2187798120008158,24.3,0x0000,0x4056
158,5.502803808999943,adis16470,-0.015,0.0,0.99625,-0.14709974999999997,0.0,9.769875062499999,-0.08800000000000001,0.405,4.621,-0.0015358897417550102,0.0070685834705770355,0.08065166473465797,0.293049452703853,0.2477101226555577,0.09517080668472885,0.0,0.8626065321056936,24.3,0x0000,0x4056
159,5.537717139000051,adis16470,-0.00625,0.00875,1.0,-0.0612915625,0.08580818750000001,9.80665,0.012,-0.095,0.22100000000000003,0.00020943951023931956,-0.0016580627893946131,0.003857177646907469,0.29762555168629706,0.2466670804442774,0.10288668532280894,0.5013252767618416,0.35808025218322936,24.400000000000002,0x0000,0x4056
160,5.572576581999783,adis16470,0.0,0.0075,0.99875,0.0,0.07354987499999999,9.7943916875,-0.08800000000000001,0.005,-0.979,-0.0015358897417550102,8.726646259971648e-05,-0.017086773377024488,0.297271733447305,0.24190454956219185,0.0687593992948125,0.43024807932067954,-0.0,23.900000000000002,0x0000,0x4056
161,5.607404470999882,adis16470,-0.00375,0.00625,0.99875,-0.03677493749999999,0.0612915625,9.7943916875,0.012,0.005,0.021000000000000005,0.00020943951023931956,8.726646259971648e-05,0.00036651914291880927,0.29890671595367774,0.24153957188888223,0.06949078263281057,0.3585421253019974,0.2151228602867341,24.0,0x0000,0x4056
162,5.642219675999968,adis16470,-0.00125,0.01,0.99625,-0.0122583125,0.0980665,9.769875062499999,0.21200000000000002,-0.095,-0.079,0.0037000980142279792,-0.0016580627893946131,-0.0013788101090755204,0.3116636918354922,0.23490519787118655,0.06674038143780375,0.5750951605035052,0.07188565027949964,24.3,0x0000,0x4056
163,5.6771214690002125,adis16470,-0.0025,0.0075,0.99375,-0.024516625,0.07354987499999999,9.7453584375,-0.28800000000000003,-0.095,1.021,-0.00502654824574367,-0.0016580627893946131,0.017819811662862103,0.3042278970250855,0.229840424226873,0.10237545310469726,0.4324127675376864,0.1441359168400244,24.3,0x0000,0x4056
164,5.711966079999911,adis16470,-0.0025,0.0075,1.0,-0.024516625,0.07354987499999999,9.80665,0.21200000000000002,0.30500000000000005,-0.179,0.0037000980142279792,0.005323254218582706,-0.00312413936106985,0.3139768265580655,0.23852332249304425,0.0961382976286793,0.42971028940104355,0.14323512195393542,24.3,0x0000,0x4056
165,5.746765915000196,adis16470,-0.00125,0.00375,0.9975,-0.0122583125,0.03677493749999999,9.782133375,0.012,0.10500000000000001,-0.179,0.00020943951023931956,0.0018325957145940463,-0.00312413936106985,0.3124144665279246,0.23876970977084558,0.08990916690169637,0.21539665260707627,0.07179867749860108,24.3,0x0000,0x4056
166,5.781577082999775,adis16470,-0.005,0.01,0.9975,-0.04903325,0.0980665,9.782133375,0.012,-0.395,-0.379,0.00020943951023931956,-0.006894050545377602,-0.006614797865058509,0.31806304794360946,0.22626249223303704,0.07671571338473199,0.5743745381882245,0.2871800540435994,24.0,0x0000,0x4056
167,5.816412582999874,adis16470,0.0,0.00625,1.0,0.0,0.0612915625,9.80665,-0.188,0.10500000000000001,-0.479,-0.0032812189937493396,0.0018325957145940463,-0.008360127117052838,0.3124455259330323,0.22532184198948543,0.06002938482368948,0.35809395932357113,-0.0,24.3,0x0000,0x4056
168,5.851269451999997,adis16470,0.0,0.015,0.99875,0.0,0.14709974999999997,9.7943916875,-0.08800000000000001,-0.095,0.8210000000000001,-0.0015358897417550102,-0.0016580627893946131,0.014329153158873446,0.3203995325652881,0.21757025298980198,0.08864667723263414,0.8604476417935275,-0.0,24.5,0x0000,0x4056
169,5.886099804999958,adis16470,0.0025,-0.00125,0.99875,0.024516625,-0.0122583125,9.7943916875,0.21200000000000002,0.10500000000000001,1.521,0.0037000980142279792,0.0018325957145940463,0.02654645792283375,0.31979375175554897,0.21393454593594494,0.14162395290876814,-0.0717093236505815,-0.14341831032350197,24.3,0x0000,0x4056
170,5.920878974000061,adis16470,-0.00125,0.01,0.99875,-0.0122583125,0.0980665,9.7943916875,0.112,0.005,1.221,0.001954768762233649,8.726646259971648e-05,0.021310470166850764,0.3286883262477587,0.21126038635398342,0.18408902399667454,0.5736557195024539,0.07170572947788775,24.400000000000002,0x0000,0x4056
171,5.955735991999973,adis16470,-0.02375,0.0,0.9975,-0.2329079375,0.0,9.782133375,-0.28800000000000003,-0.6950000000000001,5.121,-0.00502654824574367,-0.012130038301360592,0.08937831099462962,0.31227640009075985,0.21057233709135673,0.36259389742246706,0.0,1.3639275316029187,24.3,0x0000,0x4056
172,5.990537659999973,adis16470,0.0,0.00875,0.99875,0.0,0.08580818750000001,9.7943916875,-0.28800000000000003,-0.095,0.32100000000000006,-0.00502654824574367,-0.0016580627893946131,0.005602506898901799,0.306247586567185,0.2031208826163345,0.3737651378344501,0.5019526855752704,-0.0,24.1,0x0000,0x4056
173,6.025366457000018,adis16470,-0.0025,0.00375,0.99625,-0.024516625,0.03677493749999999,9.769875062499999,0.112,0.10500000000000001,-0.079,0.001954768762233649,0.0018325957145940463,-0.0013788101090755204,0.30825877980573735,0.20551789228817455,0.3710136642934674,0.21566690934400543,0.14377729825446184,24.3,0x0000,0x4056
174,6.060179939000136,adis16470,0.0,0.01125,1.00125,0.0,0.1103248125,9.8189083125,0.112,0.30500000000000005,-0.279,0.001954768762233649,0.005323254218582706,-0.00486946861306418,0.31878963409408223,0.21181325103428936,0.3613007337844876,0.6437457141753808,-0.0,24.1,0x0000,0x4056
175,6.095028010000078,adis16470,0.0,0.005,0.995,0.0,0.04903325,9.757616749999999,-0.28800000000000003,-0.195,-0.179,-0.00502654824574367,-0.003403392041388943,-0.00312413936106985,0.308336648264585,0.20091752308527824,0.3550629322974639,0.28791606655709323,-0.0,23.900000000000002,0x0000,0x4056
176,6.1298334160001104,adis16470,0.00375,0.01,0.99625,0.03677493749999999,0.0980665,9.769875062499999,0.112,0.20500000000000002,-0.079,0.001954768762233649,0.003577924966588376,-0.0013788101090755204,0.317492057786509,0.19957845396012402,0.35231330672444544,0.5750951605035052,-0.21565604558977516,24.6,0x0000,0x4056
177,6.164585008999893,adis16470,-0.00125,0.00875,0.995,-0.0122583125,0.08580818750000001,9.757616749999999,0.31200000000000006,0.405,0.021000000000000005,0.005445427266222309,0.0070685834705770355,0.00036651914291880927,0.3318447452912261,0.21081932063291375,0.3530430897784451,0.5038443697106137,0.07197680156993758,24.3,0x0000,0x4056
178,6.199440116000005,adis16470,-0.00375,0.00875,0.995,-0.03677493749999999,0.08580818750000001,9.757616749999999,0.112,0.20500000000000002,-0.179,0.001954768762233649,0.003577924966588376,-0.00312413936106985,0.33911045880036694,0.21792395993743288,0.34680398570852156,0.5038443697106137,0.21592949601316186,24.1,0x0000,0x4056
179,6.234241317999931,adis16470,-0.00125,0.0075,0.99625,-0.0122583125,0.07354987499999999,9.769875062499999,0.112,0.20500000000000002,0.22100000000000003,0.001954768762233649,0.003577924966588376,0.003857177646907469,0.344774559230154,0.22199474211037845,0.3544950020675239,0.43132770753766314,0.07188723452960491,24.3,0x0000,0x4056
180,6.269009669999832,adis16470,0.0,0.005,0.99625,0.0,0.04903325,9.769875062499999,-0.188,0.10500000000000001,0.12100000000000001,-0.0032812189937493396,0.0018325957145940463,0.002111848394913139,0.33722443651325723,0.221132514496314,0.3587019771365746,0.2875548228571788,-0.0,24.200000000000003,0x0000,0x4056
181,6.303809871999874,adis16470,-0.00125,0.00375,1.0025,-0.0122583125,0.03677493749999999,9.831166624999998,0.012,0.005,0.021000000000000005,0.00020943951023931956,8.726646259971648e-05,0.00036651914291880927,0.3351756454611913,0.21830919689121972,0.35943278137856594,0.21432236513420277,0.07144058475170155,24.400000000000002,0x0000,0x4056
182,6.339061294000203,adis16470,-0.0025,0.00625,1.0,-0.024516625,0.0612915625,9.80665,0.112,-0.195,-0.079,0.001954768762233649,-0.003403392041388943,-0.0013788101090755204,0.3395033074792691,0.21007101974678793,0.35664784730854415,0.35809395932357113,0.14323635282226646,24.3,0x0000,0x4056
183,6.374235775000216,adis16470,0.0025,0.01,0.99875,0.024516625,0.0980665,9.7943916875,-0.188,0.10500000000000001,-0.879,-0.0032812189937493396,0.0018325957145940463,-0.015341444125030157,0.33770586055905527,0.20662080015377696,0.3257297228717468,0.5736557195024539,-0.14341123433757408,24.3,0x0000,0x4056
184,6.4092897609998545,adis16470,0.0025,0.00875,0.99875,0.024516625,0.08580818750000001,9.7943916875,-0.28800000000000003,0.30500000000000005,-0.479,-0.00502654824574367,0.005323254218582706,-0.008360127117052838,0.33109717557387736,0.2100977457466447,0.3089388899226412,0.5019526855752704,-0.14341291900113057,25.0,0x0000,0x4056
185,6.4443380259999685,adis16470,-0.0025,0.00875,0.995,-0.024516625,0.08580818750000001,9.757616749999999,0.112,0.30500000000000005,-0.079,0.001954768762233649,0.005323254218582706,-0.0013788101090755204,0.33839899869309886,0.2192507348432228,0.30617009018063635,0.5038443697106137,0.14395337596463692,24.3,0x0000,0x4056
186,6.479264277999846,adis16470,-0.00125,0.00625,0.995,-0.0122583125,0.0612915625,9.757616749999999,0.012,0.005,-0.079,0.00020943951023931956,8.726646259971648e-05,-0.0013788101090755204,0.339239619015846,0.2164764220695456,0.3034109163516452,0.3598933792425204,0.07197816466438951,24.1,0x0000,0x4056
187,6.514281839999967,adis16470,0.0025,0.00875,0.995,0.024516625,0.08580818750000001,9.757616749999999,-0.188,-0.095,0.32100000000000006,-0.0032812189937493396,-0.0016580627893946131,0.005602506898901799,0.33608009535690736,0.20600769965184476,0.3146515242217044,0.5038443697106137,-0.14395337596463692,24.3,0x0000,0x4056
188,6.549256848999903,adis16470,-0.00125,0.0075,1.00125,-0.0122583125,0.07354987499999999,9.8189083125,-0.188,0.20500000000000002,0.32100000000000006,-0.0032812189937493396,0.003577924966588376,0.005602506898901799,0.33149814386757676,0.2103446238703502,0.32587855571770086,0.42917384220227756,0.07152826765722609,24.1,0x0000,0x4056
189,6.584387054000217,adis16470,-0.00125,0.00375,0.99375,-0.0122583125,0.03677493749999999,9.7453584375,-0.188,0.10500000000000001,0.22100000000000003,-0.0032812189937493396,0.0018325957145940463,0.003857177646907469,0.3227198447484779,0.21119409797168132,0.33364249478364644,0.21620946246236616,0.0720696117681726,24.3,0x0000,0x4056
190,6.6192630669997925,adis16470,-0.005,0.00875,0.99625,-0.04903325,0.08580818750000001,9.769875062499999,-0.188,0.005,-0.079,-0.0032812189937493396,8.726646259971648e-05,-0.0013788101090755204,0.31990428921261077,0.21289197904825957,0.3308873555636307,0.5032122261169566,0.2875437327005454,24.400000000000002,0x0000,0x4056
191,6.654162430999804,adis16470,-0.0025,0.00625,0.99625,-0.024516625,0.0612915625,9.769875062499999,0.012,0.20500000000000002,0.12100000000000001,0.00020943951023931956,0.003577924966588376,0.002111848394913139,0.3211054617909029,0.21852102064547446,0.3351102323316142,0.35944183102329696,0.14377548755037428,24.3,0x0000,0x4056
192,6.689018168000075,adis16470,-0.00125,0.00375,0.99625,-0.0122583125,0.03677493749999999,9.769875062499999,0.012,0.20500000000000002,-0.079,0.00020943951023931956,0.003577924966588376,-0.0013788101090755204,0.31940659159836365,0.22259084844201396,0.33235664664662284,0.21566690934400543,0.07188876229855243,24.200000000000003,0x0000,0x4056
193,6.72392277300014,adis16470,-0.00375,0.0075,0.99875,-0.03677493749999999,0.07354987499999999,9.7943916875,0.112,0.10500000000000001,0.12100000000000001,0.001954768762233649,0.0018325957145940463,0.002111848394913139,0.32545453246769135,0.22603311828453762,0.33658008364462433,0.43024807932067954,0.2151210070581326,24.3,0x0000,0x4056
194,6.758770638999977,adis16470,-0.00125,0.00625,0.99375,-0.0122583125,0.0612915625,9.7453584375,0.012,0.20500000000000002,0.42100000000000004,0.00020943951023931956,0.003577924966588376,0.007347836150896128,0.3265621722497626,0.2299547364562936,0.35125097292264,0.36034606338723113,0.07206869956196288,24.1,0x0000,0x4056
195,6.793650929999785,adis16470,0.00125,0.0075,0.995,0.0122583125,0.07354987499999999,9.757616749999999,-0.08800000000000001,0.10500000000000001,0.22100000000000003,-0.0015358897417550102,0.0018325957145940463,0.003857177646907469,0.32566025164937834,0.2275052633032926,0.35895949668061405,0.4318695560060455,-0.07197753990315267,24.3,0x0000,0x4056
196,6.828491685999779,adis16470,-0.0025,0.01,1.00375,-0.024516625,0.0980665,9.843424937499998,0.112,-0.095,0.8210000000000001,0.001954768762233649,-0.0016580627893946131,0.014329153158873446,0.3343871146154762,0.22256543949945679,0.3875636054717221,0.5707983463055499,0.14269693111711584,24.400000000000002,0x0000,0x4056
197,6.863325497999995,adis16470,0.0025,0.0075,1.0,0.024516625,0.07354987499999999,9.80665,0.012,-0.095,0.7210000000000001,0.00020943951023931956,-0.0016580627893946131,0.012583823906879118,0.3367032233051893,0.21200640381787478,0.4126787572468316,0.42971028940104355,-0.14323512195393542,24.200000000000003,0x0000,0x4056
198,6.898168752999936,adis16470,-0.0775,0.0275,0.99875,-0.7600153749999999,0.269682875,9.7943916875,-0.188,-0.495,0.22100000000000003,-0.0032812189937493396,-0.008639379797371931,0.003857177646907469,0.35509375209018357,0.27957201568568785,0.420379157707786,1.577207441045,4.435414658658517,24.3,0x0000,0x4056
199,6.933047266999893,adis16470,-0.01875,0.00375,0.99625,-0.1838746875,0.03677493749999999,9.769875062499999,-0.28800000000000003,-0.495,0.021000000000000005,-0.00502654824574367,-0.008639379797371931,0.00036651914291880927,0.3424610515116598,0.27862501315304783,0.421111610365792,0.21566690934400543,1.0782047090505804,24.3,0x0000,0x4056
200,6.967899762999878,adis16470,0.0,0.01,0.99875,0.0,0.0980665,9.7943916875,-0.08800000000000001,0.10500000000000001,-0.079,-0.0015358897417550102,0.0018325957145940463,-0.0013788101090755204,0.3440792864002925,0.27663880992946677,0.41835828222080734,0.5736557195024539,-0.0,24.3,0x0000,0x4056
201,7.002837421000095,adis16470,-0.00125,0.0125,0.99875,-0.0122583125,0.122583125,9.7943916875,-0.08800000000000001,-0.095,0.021000000000000005,-0.0015358897417550102,-0.0016580627893946131,0.00036651914291880927,0.3485257860035294,0.2692873962901602,0.41909197656680325,0.7170561722732931,0.07170370799322827,24.400000000000002,0x0000,0x4056
202,7.037695342999996,adis16470,0.00125,0.00625,0.99375,0.0122583125,0.0612915625,9.7453584375,0.112,0.10500000000000001,0.22100000000000003,0.001954768762233649,0.0018325957145940463,0.003857177646907469,0.3525881868622906,0.26604714497726195,0.42679555677589825,0.36034606338723113,-0.07206869956196288,24.200000000000003,0x0000,0x4056
203,7.072563356000046,adis16470,-0.00125,0.01,1.0,-0.0122583125,0.0980665,9.80665,-0.188,0.005,0.12100000000000001,-0.0032812189937493396,8.726646259971648e-05,0.002111848394913139,0.3505711108630623,0.2623293775620635,0.43101458864788,0.5729386976834859,0.0716161063773747,24.6,0x0000,0x4056
204,7.10747832800007,adis16470,-0.0025,0.005,0.99375,-0.024516625,0.04903325,9.7453584375,-0.08800000000000001,0.10500000000000001,-0.179,-0.0015358897417550102,0.0018325957145940463,-0.00312413936106985,0.3463141699728342,0.2635583235091319,0.42476477572389837,0.2882782190232128,0.1441381972960154,24.3,0x0000,0x4056
205,7.142266397000185,adis16470,-0.0025,0.00625,0.99375,-0.024516625,0.0612915625,9.7453584375,0.012,0.20500000000000002,-0.079,0.00020943951023931956,0.003577924966588376,-0.0013788101090755204,0.3470039124984835,0.2681587716904208,0.4220165386548893,0.36034606338723113,0.1441371710774247,24.3,0x0000,0x4056
206,7.177101872000094,adis16470,-0.0025,0.00625,1.0,-0.024516625,0.0612915625,9.80665,-0.08800000000000001,0.005,0.12100000000000001,-0.0015358897417550102,8.726646259971648e-05,0.002111848394913139,0.34422149249833667,0.26583101768445816,0.42623164456090135,0.35809395932357113,0.14323635282226646,24.3,0x0000,0x4056
207,7.211996010999883,adis16470,-0.00125,0.0125,0.99375,-0.0122583125,0.122583125,9.7453584375,0.012,0.005,-0.079,0.00020943951023931956,8.726646259971648e-05,-0.0013788101090755204,0.35216069582991955,0.26212666944990826,0.4234749695809247,0.7206636225176557,0.0720644240570369,24.200000000000003,0x0000,0x4056
208,7.246919223000077,adis16470,-0.00125,0.00625,0.9975,-0.0122583125,0.0612915625,9.782133375,-0.08800000000000001,0.005,0.021000000000000005,-0.0015358897417550102,8.726646259971648e-05,0.00036651914291880927,0.3492855819013977,0.25849121249794,0.4242083449789225,0.3589914144593881,0.07179777554151914,24.3,0x0000,0x4056
209,7.2817603640000925,adis16470,0.0,0.00375,0.9975,0.0,0.03677493749999999,9.782133375,0.012,0.10500000000000001,0.12100000000000001,0.00020943951023931956,0.0018325957145940463,0.002111848394913139,0.3470175344751131,0.2569065358944969,0.428424116263941,0.21539665260707627,-0.0,24.5,0x0000,0x4056
210,7.316616541999792,adis16470,-0.00375,0.005,1.0025,-0.03677493749999999,0.04903325,9.831166624999998,0.112,0.10500000000000001,0.12100000000000001,0.001954768762233649,0.0018325957145940463,0.002111848394913139,0.34961824428156546,0.2596415036906158,0.4326417182789674,0.2857621168765344,0.21431969952431823,24.5,0x0000,0x4056
211,7.35145568400003,adis16470,0.00125,0.0075,1.00125,0.0122583125,0.07354987499999999,9.8189083125,0.112,0.005,0.12100000000000001,0.001954768762233649,8.726646259971648e-05,0.002111848394913139,0.3550333126492567,0.25318882060335884,0.4368572678919641,0.42917384220227756,-0.07152826765722609,24.8,0x0000,0x4056
212,7.386306917000184,adis16470,-0.00125,0.0075,0.99875,-0.0122583125,0.07354987499999999,9.7943916875,-0.08800000000000001,0.005,0.32100000000000006,-0.0015358897417550102,8.726646259971648e-05,0.005602506898901799,0.3535320200558211,0.24972996226982958,0.44804457916890494,0.43024807932067954,0.07170730186194109,24.1,0x0000,0x4056
213,7.4211925559998235,adis16470,-0.00125,0.00375,1.00125,-0.0122583125,0.03677493749999999,9.8189083125,-0.08800000000000001,0.20500000000000002,0.12100000000000001,-0.0015358897417550102,0.003577924966588376,0.002111848394913139,0.34774464551311346,0.253174472303141,0.45226573483293175,0.21458993112939587,0.07152977265317602,24.1,0x0000,0x4056
214,7.456136285999946,adis16470,0.0,0.0075,0.9975,0.0,0.07354987499999999,9.782133375,0.012,0.20500000000000002,0.22100000000000003,0.00020943951023931956,0.003577924966588376,0.003857177646907469,0.3498164332321394,0.255131144462803,0.45998826203484905,0.43078721700862843,-0.0,24.1,0x0000,0x4056
215,7.491057183000066,adis16470,0.0025,0.00375,0.9975,0.024516625,0.03677493749999999,9.782133375,0.012,0.10500000000000001,0.021000000000000005,0.00020943951023931956,0.0018325957145940463,0.00036651914291880927,0.34753870889715943,0.25074995266177036,0.4607216036018513,0.21539665260707627,-0.1435971295043908,24.1,0x0000,0x4056
216,7.525922211999841,adis16470,0.0025,0.0075,1.0,0.024516625,0.07354987499999999,9.80665,0.21200000000000002,0.10500000000000001,0.021000000000000005,0.0037000980142279792,0.0018325957145940463,0.00036651914291880927,0.35642569893232484,0.24645786265357986,0.4614537692108561,0.42971028940104355,-0.14323512195393542,23.900000000000002,0x0000,0x4056
217,7.560753630999898,adis16470,0.0,0.00625,1.0,0.0,0.0612915625,9.80665,-0.188,0.10500000000000001,0.22100000000000003,-0.0032812189937493396,0.0018325957145940463,0.003857177646907469,0.35004177453810614,0.24511282991228797,0.4691514515928125,0.35809395932357113,-0.0,24.700000000000003,0x0000,0x4056
218,7.595581180999943,adis16470,-0.0025,0.01,0.9975,-0.024516625,0.0980665,9.782133375,-0.188,0.005,0.22100000000000003,-0.0032812189937493396,8.726646259971648e-05,0.003857177646907469,0.3481118123165148,0.24325304661191233,0.47684832776685293,0.5743745381882245,0.14359092886346206,23.900000000000002,0x0000,0x4056
219,7.630399933999797,adis16470,-0.005,0.00875,0.9975,-0.04903325,0.08580818750000001,9.782133375,-0.388,-0.095,0.32100000000000006,-0.006771877497737999,-0.0016580627893946131,0.005602506898901799,0.337961719539457,0.24089002672627305,0.4880251535787416,0.5025816667210311,0.2871834359883326,24.200000000000003,0x0000,0x4056
220,7.665204152000115,adis16470,-0.00125,0.005,0.995,-0.0122583125,0.04903325,9.757616749999999,-0.08800000000000001,0.10500000000000001,0.12100000000000001,-0.0015358897417550102,0.0018325957145940463,0.002111848394913139,0.33395929399658686,0.24109314983067034,0.49223645935877364,0.28791606655709323,0.07197867584477506,24.3,0x0000,0x4056
221,7.700023331000011,adis16470,-0.0025,0.00875,0.99625,-0.024516625,0.08580818750000001,9.769875062499999,-0.28800000000000003,-0.095,0.12100000000000001,-0.00502654824574367,-0.0016580627893946131,0.002111848394913139,0.32751698219543185,0.23590507493269314,0.4964495823167918,0.5032122261169566,0.14377277162250895,24.3,0x0000,0x4056
222,7.734797679000167,adis16470,0.0,0.005,0.9975,0.0,0.04903325,9.782133375,-0.28800000000000003,0.405,-0.279,-0.00502654824574367,0.0070685834705770355,-0.00486946861306418,0.316895830705129,0.2449888974697953,0.486747549547893,0.28719448450717,-0.0,24.5,0x0000,0x4056
223,7.769609099999798,adis16470,-0.0025,0.005,0.99875,-0.024516625,0.04903325,9.7943916875,0.012,0.10500000000000001,-0.079,0.00020943951023931956,0.0018325957145940463,-0.0013788101090755204,0.31670399866950705,0.24653955867262672,0.4839974385198712,0.28683504810786925,0.14341662546994588,24.900000000000002,0x0000,0x4056
224,7.804535867000141,adis16470,0.0,0.00375,0.99875,0.0,0.03677493749999999,9.7943916875,-0.28800000000000003,0.10500000000000001,-0.279,-0.00502654824574367,0.0018325957145940463,-0.00486946861306418,0.3048145047619268,0.24520281373188554,0.47425264844284043,0.21512707234805006,-0.0,24.3,0x0000,0x4056
225,7.839378823000061,adis16470,-0.00125,0.0075,0.99875,-0.0122583125,0.07354987499999999,9.7943916875,0.21200000000000002,0.005,-0.179,0.0037000980142279792,8.726646259971648e-05,-0.00312413936106985,0.314561995049265,0.24190363035288673,0.4680158917788377,0.43024807932067954,0.07170730186194109,23.900000000000002,0x0000,0x4056
226,7.874217002000023,adis16470,0.0,0.0075,1.0025,0.0,0.07354987499999999,9.831166624999998,0.112,0.20500000000000002,0.12100000000000001,0.001954768762233649,0.003577924966588376,0.002111848394913139,0.3206673540605589,0.2440645217899235,0.4722312957078344,0.4286387327021102,-0.0,24.400000000000002,0x0000,0x4056
227,7.909063939000134,adis16470,-0.00125,0.00625,1.0,-0.0122583125,0.0612915625,9.80665,0.112,0.20500000000000002,0.021000000000000005,0.001954768762233649,0.003577924966588376,0.00036651914291880927,0.32524070221540935,0.24761637649680443,0.47296308449283253,0.35809395932357113,0.07161828830987142,24.400000000000002,0x0000,0x4056
228,7.943873896999776,adis16470,-0.00375,0.005,0.99875,-0.03677493749999999,0.04903325,9.7943916875,-0.28800000000000003,0.10500000000000001,0.32100000000000006,-0.00502654824574367,0.0018325957145940463,0.005602506898901799,0.3146478946072021,0.25054845637816586,0.4841370036498057,0.28683504810786925,0.21512437660030614,24.6,0x0000,0x4056
229,7.978683261999777,adis16470,-0.0025,0.0075,1.0,-0.024516625,0.07354987499999999,9.80665,0.012,-0.095,0.021000000000000005,0.00020943951023931956,-0.0016580627893946131,0.00036651914291880927,0.3173585032461981,0.24516141713998804,0.4848680049768042,0.42971028940104355,0.14323512195393542,24.400000000000002,0x0000,0x4056
230,8.01349727500019,adis16470,-0.00375,0.00875,1.00125,-0.03677493749999999,0.08580818750000001,9.8189083125,-0.08800000000000001,0.20500000000000002,-0.079,-0.0015358897417550102,0.003577924966588376,-0.0013788101090755204,0.31802297096062404,0.2515439364570937,0.48211770671878657,0.5006994343924603,0.21458173740302552,24.3,0x0000,0x4056
231,8.048354563999965,adis16470,0.0,0.005,0.99625,0.0,0.04903325,9.769875062499999,0.012,0.10500000000000001,0.021000000000000005,0.00020943951023931956,0.0018325957145940463,0.00036651914291880927,0.3178235325513546,0.2500998975649471,0.4828497148487856,0.2875548228571788,-0.0,24.3,0x0000,0x4056
232,8.083224499000153,adis16470,-0.00125,0.00625,0.995,-0.0122583125,0.0612915625,9.757616749999999,-0.188,0.30500000000000005,-0.079,-0.0032812189937493396,0.005323254218582706,-0.0013788101090755204,0.3122404790270437,0.2569601085969942,0.4800949841377966,0.3598933792425204,0.07197816466438951,24.400000000000002,0x0000,0x4056
233,8.118051859999923,adis16470,-0.0025,0.00625,1.00125,-0.024516625,0.0612915625,9.8189083125,-0.188,0.30500000000000005,0.021000000000000005,-0.0032812189937493396,0.005323254218582706,0.00036651914291880927,0.3067320487866331,0.26509190010390976,0.48082635483379466,0.3576469123176653,0.14305753862414888,24.3,0x0000,0x4056
234,8.152937939999902,adis16470,-0.00125,0.005,0.995,-0.0122583125,0.04903325,9.757616749999999,0.112,0.10500000000000001,0.12100000000000001,0.001954768762233649,0.0018325957145940463,0.002111848394913139,0.31018487610173157,0.2648194608934357,0.48504762653680483,0.28791606655709323,0.07197867584477506,24.200000000000003,0x0000,0x4056
235,8.18788957300012,adis16470,-0.0025,0.0075,0.9925,-0.024516625,0.07354987499999999,9.733100125,0.21200000000000002,0.005,0.32100000000000006,0.0037000980142279792,8.726646259971648e-05,0.005602506898901799,0.31990182672727124,0.2625806822382715,0.4962670233688174,0.4329573472823078,0.1443174370952172,24.3,0x0000,0x4056
236,8.22265306700001,adis16470,-0.00375,0.01,0.995,-0.03677493749999999,0.0980665,9.757616749999999,0.21200000000000002,0.20500000000000002,-0.179,0.0037000980142279792,0.003577924966588376,-0.00312413936106985,0.3322425093781406,0.26863150032858873,0.49004444081985604,0.5758175932449805,0.2159269403613029,24.400000000000002,0x0000,0x4056
237,8.257436967000103,adis16470,-0.0025,0.00875,0.9975,-0.024516625,0.08580818750000001,9.782133375,0.21200000000000002,0.005,-0.079,0.0037000980142279792,8.726646259971648e-05,-0.0013788101090755204,0.3428759955890177,0.26630116382937125,0.4872965127198487,0.5025816667210311,0.14359261986769054,24.3,0x0000,0x4056
238,8.292248014000052,adis16470,0.0,0.00625,0.995,0.0,0.0612915625,9.757616749999999,-0.188,0.005,0.12100000000000001,-0.0032812189937493396,8.726646259971648e-05,0.002111848394913139,0.33680274914592556,0.26114571486438387,0.4915086538838501,0.3598933792425204,-0.0,24.400000000000002,0x0000,0x4056
239,8.327057931000127,adis16470,0.00125,0.005,1.0,0.0122583125,0.04903325,9.80665,-0.08800000000000001,0.10500000000000001,-0.279,-0.0015358897417550102,0.0018325957145940463,-0.00486946861306418,0.33279421867876563,0.25807236333700195,0.4817966920627761,0.2864765102770745,-0.07161879186107749,24.8,0x0000,0x4056
240,8.361899810000068,adis16470,-0.00125,0.00875,0.99625,-0.0122583125,0.08580818750000001,9.769875062499999,-0.28800000000000003,0.005,0.021000000000000005,-0.00502654824574367,8.726646259971648e-05,0.00036651914291880927,0.32636878601291847,0.25451937161939775,0.48252837307576796,0.5032122261169566,0.07188649897188719,25.0,0x0000,0x4056
241,8.396713894000186,adis16470,-0.00125,0.005,0.99625,-0.0122583125,0.04903325,9.769875062499999,-0.08800000000000001,0.20500000000000002,0.12100000000000001,-0.0015358897417550102,0.003577924966588376,0.002111848394913139,0.3225901433365189,0.2578608935533398,0.48674087276277456,0.2875548228571788,0.07188836620095371,24.6,0x0000,0x4056
242,8.43156395799997,adis16470,0.00125,0.00375,1.0,0.0122583125,0.03677493749999999,9.80665,-0.188,-0.095,0.32100000000000006,-0.0032812189937493396,-0.0016580627893946131,0.005602506898901799,0.31401472468270336,0.24802674937768135,0.49792774908479,0.2148581660301822,-0.07161918351935888,24.3,0x0000,0x4056
243,8.466407076999985,adis16470,-0.0025,0.01,0.9975,-0.024516625,0.0980665,9.782133375,-0.08800000000000001,0.20500000000000002,0.021000000000000005,-0.0015358897417550102,0.003577924966588376,0.00036651914291880927,0.3162170391590533,0.25293804169149803,0.4986594573137901,0.5743745381882245,0.14359092886346206,24.8,0x0000,0x4056
244,8.501233530999798,adis16470,0.0,0.01,0.99625,0.0,0.0980665,9.769875062499999,0.112,0.005,0.021000000000000005,0.001954768762233649,8.726646259971648e-05,0.00036651914291880927,0.32521713890821285,0.24804992984526944,0.4993908101177959,0.5750951605035052,-0.0,24.3,0x0000,0x4056
245,8.536048670000127,adis16470,-0.00375,0.005,0.99625,-0.03677493749999999,0.04903325,9.769875062499999,-0.08800000000000001,-0.095,0.32100000000000006,-0.0015358897417550102,-0.0016580627893946131,0.005602506898901799,0.32146143655218573,0.24416092734833092,0.5105664639586708,0.2875548228571788,0.21566419325153002,24.3,0x0000,0x4056
246,8.570883660000163,adis16470,-0.00125,0.00625,0.99625,-0.0122583125,0.0612915625,9.769875062499999,0.112,0.10500000000000001,0.32100000000000006,0.001954768762233649,0.0018325957145940463,0.005602506898901799,0.3260445350294797,0.24429998836633876,0.5217485018477638,0.35944183102329696,0.07188785694223293,24.3,0x0000,0x4056
247,8.605703965999965,adis16470,0.0025,0.005,0.99625,0.024516625,0.04903325,9.769875062499999,-0.08800000000000001,0.10500000000000001,0.12100000000000001,-0.0015358897417550102,0.0018325957145940463,0.002111848394913139,0.3222718280239544,0.240121479387051,0.5259617723047628,0.2875548228571788,-0.1437765060630057,24.1,0x0000,0x4056
248,8.640515772000072,adis16470,-0.00125,0.00375,0.99625,-0.0122583125,0.03677493749999999,9.769875062499999,-0.08800000000000001,0.30500000000000005,-0.179,-0.0015358897417550102,0.005323254218582706,-0.00312413936106985,0.3171375739029907,0.24716202394239722,0.5197304889237532,0.21566690934400543,0.07188876229855243,24.400000000000002,0x0000,0x4056
249,8.675325560000147,adis16470,-0.0025,0.00625,0.99875,-0.024516625,0.0612915625,9.7943916875,-0.08800000000000001,0.005,0.12100000000000001,-0.0015358897417550102,8.726646259971648e-05,0.002111848394913139,0.3149636607935307,0.2452576641721756,0.5239424845247533,0.3585421253019974,0.14341561458631422,23.900000000000002,0x0000,0x4056
250,8.71013173700021,adis16470,-0.0025,0.00875,0.99875,-0.024516625,0.08580818750000001,9.7943916875,-0.28800000000000003,0.10500000000000001,-0.379,-0.00502654824574367,0.0018325957145940463,-0.006614797865058509,0.30887972500699995,0.24680233249662756,0.5107509153958533,0.5019526855752704,0.14341291900113057,24.200000000000003,0x0000,0x4056
251,8.745059871000194,adis16470,-0.00375,0.0075,0.99875,-0.03677493749999999,0.07354987499999999,9.7943916875,-0.28800000000000003,0.20500000000000002,0.021000000000000005,-0.00502654824574367,0.003577924966588376,0.00036651914291880927,0.30144890781546446,0.25318581632449255,0.5114844112498569,0.43024807932067954,0.2151210070581326,24.3,0x0000,0x4056
252,8.779998911999883,adis16470,0.0,0.00375,1.0,0.0,0.03677493749999999,9.80665,-0.188,0.10500000000000001,0.32100000000000006,-0.0032812189937493396,0.0018325957145940463,0.005602506898901799,0.2932799308827841,0.25171732350961096,0.5226998315338826,0.2148581660301822,-0.0,24.6,0x0000,0x4056
253,8.814941785999963,adis16470,-0.00125,0.0025,1.00125,-0.0122583125,0.024516625,9.8189083125,0.012,0.005,0.32100000000000006,0.00020943951023931956,8.726646259971648e-05,0.005602506898901799,0.29068646763604394,0.24828479842374956,0.5339165120638643,0.14306032570581104,0.07153005136655487,24.700000000000003,0x0000,0x4056
254,8.849951249999776,adis16470,0.0,0.0075,0.99625,0.0,0.07354987499999999,9.769875062499999,0.31200000000000006,0.30500000000000005,-0.079,0.005445427266222309,0.005323254218582706,-0.0013788101090755204,0.30420404084482655,0.25378368022860415,0.5311506986008564,0.43132770753766314,-0.0,24.200000000000003,0x0000,0x4056
255,8.884856625999873,adis16470,0.00375,0.0075,1.00125,0.03677493749999999,0.07354987499999999,9.8189083125,-0.188,-0.095,-0.079,-0.0032812189937493396,-0.0016580627893946131,-0.0013788101090755204,0.30027255920146395,0.24116668276951006,0.5283932119748771,0.42917384220227756,-0.2145839111573227,24.3,0x0000,0x4056
256,8.919708837000144,adis16470,-0.00625,0.00625,0.99875,-0.0612915625,0.0612915625,9.7943916875,-0.188,0.20500000000000002,-0.279,-0.0032812189937493396,0.003577924966588376,-0.00486946861306418,0.29501689505577594,0.2505157340454549,0.5186696205968488,0.3585421253019974,0.35853510537573596,24.3,0x0000,0x4056
257,8.954584603000058,adis16470,-0.00625,0.0125,1.0,-0.0612915625,0.122583125,9.80665,0.012,-0.095,-0.079,0.00020943951023931956,-0.0016580627893946131,-0.0013788101090755204,0.3038498963893497,0.24941979486752447,0.5159144262348414,0.7161599454704085,0.3580659872393689,24.400000000000002,0x0000,0x4056
258,8.989565716000016,adis16470,-0.0025,0.0075,0.9975,-0.024516625,0.07354987499999999,9.782133375,-0.28800000000000003,0.005,-0.079,-0.00502654824574367,8.726646259971648e-05,-0.0013788101090755204,0.2965155057311018,0.24747468930893277,0.5131508993478656,0.43078721700862843,0.1435940854530146,24.3,0x0000,0x4056
259,9.02445842599991,adis16470,-0.0025,0.00375,0.9975,-0.024516625,0.03677493749999999,9.782133375,-0.08800000000000001,0.10500000000000001,0.12100000000000001,-0.0015358897417550102,0.0018325957145940463,0.002111848394913139,0.29188399731261855,0.24898757893534526,0.5173728948728695,0.21539665260707627,0.1435971295043908,24.3,0x0000,0x4056
260,9.059285917000125,adis16470,-0.00125,0.00625,0.9975,-0.0122583125,0.0612915625,9.782133375,0.21200000000000002,-0.095,-0.079,0.0037000980142279792,-0.0016580627893946131,-0.0013788101090755204,0.30046185885529614,0.24220136421664087,0.5146215407008459,0.3589914144593881,0.07179777554151914,24.400000000000002,0x0000,0x4056
261,9.094158217999848,adis16470,0.0025,0.01,0.9975,0.024516625,0.0980665,9.782133375,-0.08800000000000001,0.005,0.12100000000000001,-0.0015358897417550102,8.726646259971648e-05,0.002111848394913139,0.30293272675604216,0.2346563925417384,0.5188410869438354,0.5743745381882245,-0.14359092886346206,24.5,0x0000,0x4056
262,9.129047147000165,adis16470,0.0,0.0075,1.0,0.0,0.07354987499999999,9.80665,-0.188,0.005,0.12100000000000001,-0.0032812189937493396,8.726646259971648e-05,0.002111848394913139,0.29904030432926415,0.23013422143770357,0.5230626719158341,0.42971028940104355,-0.0,24.200000000000003,0x0000,0x4056
263,9.163885392999873,adis16470,-0.00125,0.005,0.9975,-0.0122583125,0.04903325,9.782133375,-0.08800000000000001,-0.195,0.32100000000000006,-0.0015358897417550102,-0.003403392041388943,0.005602506898901799,0.2957989343206829,0.22030990659435903,0.5342457610797574,0.28719448450717,0.07179828288819508,24.400000000000002,0x0000,0x4056
264,9.198745212000176,adis16470,-0.005,0.0075,0.9975,-0.04903325,0.07354987499999999,9.782133375,-0.28800000000000003,0.10500000000000001,0.021000000000000005,-0.00502654824574367,0.0018325957145940463,0.00036651914291880927,0.2886599013509933,0.22523449780267915,0.534977814548764,0.43078721700862843,0.2871863671037507,24.5,0x0000,0x4056
265,9.233559237000009,adis16470,-0.0025,0.01,1.0,-0.024516625,0.0980665,9.80665,0.112,0.20500000000000002,0.021000000000000005,0.001954768762233649,0.003577924966588376,0.00036651914291880927,0.2981666586248387,0.23058857419917192,0.5357089079187631,0.5729386976834859,0.14323198897772707,24.3,0x0000,0x4056
266,9.268366762999904,adis16470,0.0,0.00375,0.99875,0.0,0.03677493749999999,9.7943916875,0.112,0.10500000000000001,0.22100000000000003,0.001954768762233649,0.0018325957145940463,0.003857177646907469,0.3003263265744937,0.22955848366067982,0.5434013422137446,0.21512707234805006,-0.0,24.3,0x0000,0x4056
267,9.303177529000095,adis16470,-0.0025,0.01,0.99875,-0.024516625,0.0980665,9.7943916875,0.012,0.005,0.12100000000000001,0.00020943951023931956,8.726646259971648e-05,0.002111848394913139,0.30620228969977353,0.22800611170201798,0.5476134516757512,0.5736557195024539,0.14341123433757408,24.400000000000002,0x0000,0x4056
268,9.338098345000162,adis16470,-0.005,0.00375,0.99625,-0.04903325,0.03677493749999999,9.769875062499999,0.012,0.005,0.12100000000000001,0.00020943951023931956,8.726646259971648e-05,0.002111848394913139,0.3048022563337002,0.22936815945094716,0.5518389264347721,0.21566690934400543,0.2875527857934343,24.400000000000002,0x0000,0x4056
269,9.373000606999994,adis16470,0.0,0.005,0.99875,0.0,0.04903325,9.7943916875,-0.188,0.30500000000000005,0.32100000000000006,-0.0032812189937493396,0.005323254218582706,0.005602506898901799,0.29801255700331597,0.2352130213980433,0.5630424870526809,0.28683504810786925,-0.0,24.3,0x0000,0x4056
270,9.407852166999874,adis16470,-0.00125,0.00875,0.99875,-0.0122583125,0.08580818750000001,9.7943916875,-0.08800000000000001,0.405,-0.179,-0.0015358897417550102,0.0070685834705770355,-0.00312413936106985,0.2990857641449727,0.245775462282058,0.5568040642566344,0.5019526855752704,0.07170657181362397,24.3,0x0000,0x4056
271,9.442723873999967,adis16470,-0.00125,0.01,1.0025,-0.0122583125,0.0980665,9.831166624999998,-0.28800000000000003,0.10500000000000001,0.22100000000000003,-0.00502654824574367,0.0018325957145940463,0.003857177646907469,0.29469207951943777,0.2458769946835542,0.5645106951496269,0.5715100177637471,0.07143753057204327,24.1,0x0000,0x4056
272,9.477590303999932,adis16470,-0.0025,0.005,0.99375,-0.024516625,0.04903325,9.7453584375,-0.08800000000000001,0.10500000000000001,0.12100000000000001,-0.0015358897417550102,0.0018325957145940463,0.002111848394913139,0.2915569086228136,0.2474299896119792,0.5687295510875985,0.2882782190232128,0.1441381972960154,24.400000000000002,0x0000,0x4056
273,9.51244662399995,adis16470,0.00125,0.01125,0.9975,0.0122583125,0.1103248125,9.782133375,-0.188,0.10500000000000001,0.42100000000000004,-0.0032812189937493396,0.0018325957145940463,0.007347836150896128,0.2922271884427983,0.2446321936291686,0.583403983501668,0.6461656060315709,-0.07179461895939852,25.0,0x0000,0x4056
274,9.54730553599984,adis16470,-0.005,0.00875,0.99875,-0.04903325,0.08580818750000001,9.7943916875,0.112,0.005,0.32100000000000006,0.001954768762233649,8.726646259971648e-05,0.005602506898901799,0.3002478268353546,0.24564683988275773,0.5945937359836295,0.5019526855752704,0.28682404101865366,24.3,0x0000,0x4056
275,9.582147041000098,adis16470,-0.00125,0.005,0.99875,-0.0122583125,0.04903325,9.7943916875,0.112,0.005,0.021000000000000005,0.001954768762233649,8.726646259971648e-05,0.00036651914291880927,0.30380378911843214,0.2423387955977386,0.5953254103186347,0.28683504810786925,0.07170842505673995,24.400000000000002,0x0000,0x4056
276,9.617051358000026,adis16470,-0.0025,0.0025,0.9975,-0.024516625,0.024516625,9.782133375,0.112,0.10500000000000001,0.22100000000000003,0.001954768762233649,0.0018325957145940463,0.003857177646907469,0.3044307679080049,0.2439556220074208,0.6030392519995487,0.14359814423120423,0.14359769323885363,24.400000000000002,0x0000,0x4056
277,9.651965433999976,adis16470,-0.0025,0.0075,0.99625,-0.024516625,0.07354987499999999,9.769875062499999,-0.28800000000000003,-0.195,0.12100000000000001,-0.00502654824574367,-0.003403392041388943,0.002111848394913139,0.29711454744747423,0.23527990742758975,0.6072638596725503,0.43132770753766314,0.14377424273099706,24.6,0x0000,0x4056
278,9.686810606000108,adis16470,-0.00125,0.0075,0.99875,-0.0122583125,0.07354987499999999,9.7943916875,0.012,-0.095,0.22100000000000003,0.00020943951023931956,-0.0016580627893946131,0.003857177646907469,0.3001869955671823,0.22876438358184578,0.6149646099766238,0.43024807932067954,0.07170730186194109,24.3,0x0000,0x4056
279,9.721726219000175,adis16470,-0.00125,0.00875,1.0,-0.0122583125,0.08580818750000001,9.80665,-0.08800000000000001,0.10500000000000001,0.521,-0.0015358897417550102,0.0018325957145940463,0.009093165402890457,0.3011986355351035,0.22921425520634706,0.6331556636264546,0.5013252767618416,0.0716169455585803,24.3,0x0000,0x4056
280,9.756663516000117,adis16470,-0.0025,0.0075,0.9975,-0.024516625,0.07354987499999999,9.782133375,0.012,-0.395,0.521,0.00020943951023931956,-0.006894050545377602,0.009093165402890457,0.3042012682484935,0.2139776744655987,0.6513579276334299,0.43078721700862843,0.1435940854530146,24.400000000000002,0x0000,0x4056
281,9.791528241999913,adis16470,-0.0075,0.00625,0.9975,-0.07354987499999999,0.0612915625,9.782133375,0.012,0.20500000000000002,0.521,0.00020943951023931956,0.003577924966588376,0.009093165402890457,0.3057070831846364,0.22531806807739474,0.6695225754406543,0.3589914144593881,0.43077876153607486,24.400000000000002,0x0000,0x4056
282,9.826374857999781,adis16470,0.00125,0.005,0.9925,0.0122583125,0.04903325,9.733100125,0.112,-0.095,0.021000000000000005,0.001954768762233649,-0.0016580627893946131,0.00036651914291880927,0.3091905135467032,0.21612430266994412,0.6702543508906502,0.2886412836890471,-0.07215997754604626,24.3,0x0000,0x4056
283,9.861240843999894,adis16470,-0.00125,0.0075,1.00125,-0.0122583125,0.07354987499999999,9.8189083125,-0.28800000000000003,-0.195,0.021000000000000005,-0.00502654824574367,-0.003403392041388943,0.00036651914291880927,0.30174959407048174,0.20656948516545393,0.6709865373526541,0.42917384220227756,0.07152826765722609,24.5,0x0000,0x4056
284,9.896138383000107,adis16470,0.0025,0.005,0.99875,0.024516625,0.04903325,9.7943916875,0.012,0.005,0.12100000000000001,0.00020943951023931956,8.726646259971648e-05,0.002111848394913139,0.3018616980099487,0.19974076081054562,0.6752091375146465,0.28683504810786925,-0.14341662546994588,24.400000000000002,0x0000,0x4056
285,9.931025072000011,adis16470,0.0,0.00375,0.9975,0.0,0.03677493749999999,9.782133375,-0.188,-0.495,-0.179,-0.0032812189937493396,-0.008639379797371931,-0.00312413936106985,0.29370487720539373,0.17882242246259905,0.6689644237637071,0.21539665260707627,-0.0,24.1,0x0000,0x4056
286,9.96586513300008,adis16470,-0.0025,0.0075,0.99625,-0.024516625,0.07354987499999999,9.769875062499999,-0.08800000000000001,0.005,0.021000000000000005,-0.0015358897417550102,8.726646259971648e-05,0.00036651914291880927,0.2934527301422787,0.17829217498556704,0.6696960642677072,0.43132770753766314,0.14377424273099706,24.400000000000002,0x0000,0x4056
