sample,time_s,sensor,accel_x_mps2,accel_y_mps2,accel_z_mps2,linear_accel_x_mps2,linear_accel_y_mps2,linear_accel_z_mps2,gyro_x_radps,gyro_y_radps,gyro_z_radps,gyro_x_dps,gyro_y_dps,gyro_z_dps,roll_deg,pitch_deg,yaw_deg,temp_c,diag_stat
0,0.0004664979999802199,adis16470,-0.0122583125,-0.0122583125,-0.0122583125,5.649613704848444,5.649613704848444,5.649613704848442,-0.0017453292519943296,-0.0017453292519943296,-0.0017453292519943296,-0.1,-0.1,-0.1,-135.0,35.264389682754654,0.0,24.9,0xFFFF
1,0.020058623000011266,adis16470,-0.0122583125,-0.0122583125,-0.0122583125,5.6493453887612235,5.649558124572561,5.649937585317398,-0.0017453292519943296,-0.0017453292519943296,-0.0017453292519943296,-0.1,-0.1,-0.1,-135.001919946616,35.262469736138655,-0.0019591292000029625,24.9,0xFFFF
2,0.04005546799999138,adis16470,-0.0122583125,-0.0122583125,-0.0122583125,5.649076893263433,5.64950248672392,5.650261670939777,-0.0017453292519943296,-0.0017453292519943296,-0.0017453292519943296,-0.1,-0.1,-0.1,-135.00384113147769,35.260548551276976,-0.003958704500001887,24.9,0xFFFF
3,0.06005462799998895,adis16470,-0.0122583125,-0.0122583125,-0.0122583125,5.648813716370159,5.649447931189273,5.650579325699933,-0.0017453292519943296,-0.0017453292519943296,-0.0017453292519943296,-0.1,-0.1,-0.1,-135.00572421555214,35.258665467202526,-0.005958609300000718,24.9,0xFFFF
4,0.08005456600000116,adis16470,-0.0122583125,-0.0122583125,-0.0122583125,5.648555784631636,5.649394443925275,5.65089063891191,-0.0017453292519943296,-0.0017453292519943296,-0.0017453292519943296,-0.1,-0.1,-0.1,-135.00756972702706,35.256819955727565,-0.007958604999998899,24.9,0xFFFF
5,0.1000564670000017,adis16470,-0.0122583125,-0.0122583125,-0.0122583125,5.648302967025908,5.649341998898394,5.651195769348427,-0.0017453292519943296,-0.0017453292519943296,-0.0017453292519943296,-0.1,-0.1,-0.1,-135.00937860590653,35.255011076848106,-0.0099588840000024,24.9,0xFFFF
6,0.12005540500001644,adis16470,-0.0122583125,-0.0122583125,-0.0122583125,5.6480552642242055,5.649290597347483,5.651494716813372,-0.0017453292519943296,-0.0017453292519943296,-0.0017453292519943296,-0.1,-0.1,-0.1,-135.0111508498424,35.25323883291224,-0.011958696300001747,24.9,0xFFFF
7,0.14005908299998282,adis16470,-0.0122583125,-0.0122583125,-0.0122583125,5.647812427531377,5.649240188716561,5.651787782039068,-0.0017453292519943296,-0.0017453292519943296,-0.0017453292519943296,-0.1,-0.1,-0.1,-135.0128882405256,35.251501442229085,-0.013959112300000241,24.9,0xFFFF
8,0.16005646500002513,adis16470,-0.0122583125,-0.0122583125,-0.0122583125,5.6475745412033636,5.649190791508981,5.6520748639079645,-0.0017453292519943296,-0.0017453292519943296,-0.0017453292519943296,-0.1,-0.1,-0.1,-135.0145901774031,35.24979950535159,-0.01595880790000024,24.9,0xFFFF
9,0.1800566809999964,adis16470,-0.0122583125,-0.0122583125,-0.0122583125,5.647341364114091,5.649142356631918,5.652356253957486,-0.0017453292519943296,-0.0017453292519943296,-0.0017453292519943296,-0.1,-0.1,-0.1,-135.01625838777105,35.248131294983644,-0.01795882210000173,24.9,0xFFFF
10,0.20005565600001773,adis16470,-0.0122583125,-0.0122583125,-0.0122583125,5.64711286063771,5.649094877615265,5.652631995699231,-0.0017453292519943296,-0.0017453292519943296,-0.0017453292519943296,-0.1,-0.1,-0.1,-135.01789312858165,35.24649655417306,-0.0199587288000032,24.9,0xFFFF
11,0.22005635300001813,adis16470,-0.0122583125,-0.0122583125,-0.0122583125,5.646888900938912,5.649048328376842,5.6529022463094645,-0.0017453292519943296,-0.0017453292519943296,-0.0017453292519943296,-0.1,-0.1,-0.1,-135.01949533069,35.2448943520647,-0.021958794800002582,24.9,0xFFFF
12,0.24005705000001853,adis16470,-0.0122583125,-0.0122583125,-0.0122583125,5.646669415126952,5.649002695248455,5.6531670906045,-0.0017453292519943296,-0.0017453292519943296,-0.0017453292519943296,-0.1,-0.1,-0.1,-135.02106549600822,35.24332418674649,-0.023958868200003283,24.9,0xFFFF
13,0.2600558030000002,adis16470,-0.0122583125,-0.0122583125,-0.0122583125,5.646454343320397,5.6489579666092125,5.653426601304058,-0.0017453292519943296,-0.0017453292519943296,-0.0017453292519943296,-0.1,-0.1,-0.1,-135.02260405476807,35.24178562798665,-0.025958734200003167,24.9,0xFFFF
14,0.2800551849999806,adis16470,-0.0122583125,-0.0122583125,-0.0122583125,5.646243559346674,5.6489141170142645,5.6536809310954705,-0.0017453292519943296,-0.0017453292519943296,-0.0017453292519943296,-0.1,-0.1,-0.1,-135.0241119113447,35.240277771410014,-0.02795867060000319,24.9,0xFFFF
15,0.30005565999999817,adis16470,-0.0122583125,-0.0122583125,-0.0122583125,5.646036972029678,5.648871128256077,5.653930190415692,-0.0017453292519943296,-0.0017453292519943296,-0.0017453292519943296,-0.1,-0.1,-0.1,-135.02558971966783,35.238799963086905,-0.029958718099999265,24.9,0xFFFF
16,0.3200552650000077,adis16470,-0.0122583125,-0.0122583125,-0.0122583125,5.645834524739735,5.648828989282303,5.654174448000696,-0.0017453292519943296,-0.0017453292519943296,-0.0017453292519943296,-0.1,-0.1,-0.1,-135.02703788646647,35.23735179628826,-0.031958678500001274,24.9,0xFFFF
17,0.3400555360000226,adis16470,-0.0122583125,-0.0122583125,-0.0122583125,5.645636113997182,5.648787679257148,5.654413829094434,-0.0017453292519943296,-0.0017453292519943296,-0.0017453292519943296,-0.1,-0.1,-0.1,-135.02845715353115,35.23593252922358,-0.03395870379999907,24.9,0xFFFF
18,0.36005578800001103,adis16470,-0.0122583125,-0.0122583125,-0.0122583125,5.6454416681012685,5.648747183926589,5.6546484205804335,-0.0017453292519943296,-0.0017453292519943296,-0.0017453292519943296,-0.1,-0.1,-0.1,-135.02984803525456,35.2345416475002,-0.035958729100002536,24.9,0xFFFF
19,0.3800561340000286,adis16470,-0.0122583125,-0.0122583125,-0.0122583125,5.645251105614223,5.648707486978625,5.654878321072741,-0.0017453292519943296,-0.0017453292519943296,-0.0017453292519943296,-0.1,-0.1,-0.1,-135.03121111561146,35.23317856714329,-0.03795877100000099,24.9,0xFFFF
20,0.4000551459999997,adis16470,-0.0122583125,-0.0122583125,-0.0122583125,5.645064371054596,5.648668577479794,5.655103597854967,-0.0017453292519943296,-0.0017453292519943296,-0.0017453292519943296,-0.1,-0.1,-0.1,-135.03254679284925,35.231842889905515,-0.039958668500003125,24.9,0xFFFF
21,0.42005526899998813,adis16470,-0.0122583125,-0.0122583125,-0.0122583125,5.644881352720921,5.648630432753442,5.6553243860185685,-0.0017453292519943296,-0.0017453292519943296,-0.0017453292519943296,-0.1,-0.1,-0.1,-135.03385586728228,35.2305338154725,-0.041958679000003954,24.9,0xFFFF
22,0.4400565770000071,adis16470,-0.0122583125,-0.0122583125,-0.0122583125,5.644701974652376,5.648593037539582,5.655540777520386,-0.0017453292519943296,-0.0017453292519943296,-0.0017453292519943296,-0.1,-0.1,-0.1,-135.03513888351063,35.22925079924415,-0.043958815299998844,24.9,0xFFFF
23,0.4600561810000272,adis16470,-0.0122583125,-0.0122583125,-0.0122583125,5.644526204466714,5.648556385639506,5.655752811733382,-0.0017453292519943296,-0.0017453292519943296,-0.0017453292519943296,-0.1,-0.1,-0.1,-135.03639607438242,35.227993608372344,-0.04595878320000112,24.9,0xFFFF
24,0.48005532299998777,adis16470,-0.0122583125,-0.0122583125,-0.0122583125,5.644353954153703,5.648520459233173,5.655960595123268,-0.0017453292519943296,-0.0017453292519943296,-0.0017453292519943296,-0.1,-0.1,-0.1,-135.03762807057478,35.22676161217999,-0.04795869920000088,24.9,0xFFFF
25,0.5000618349999968,adis16470,-0.0122583125,-0.0122583125,-0.0122583125,5.644185031623131,5.648485218757082,5.656164359686347,-0.0017453292519943296,-0.0017453292519943296,-0.0017453292519943296,-0.1,-0.1,-0.1,-135.0388362471033,35.225553435651484,-0.049959452199999546,24.9,0xFFFF
26,0.5200550690000227,adis16470,-0.0122583125,-0.0122583125,-0.0122583125,5.644019693158411,5.648450718172247,5.656363796555299,-0.0017453292519943296,-0.0017453292519943296,-0.0017453292519943296,-0.1,-0.1,-0.1,-135.04001877206923,35.224370910685536,-0.05195868680000332,24.9,0xFFFF
27,0.5400562479999849,adis16470,-0.0122583125,-0.0122583125,-0.0122583125,5.643857541393734,5.648416875037333,5.656559385312403,-0.0017453292519943296,-0.0017453292519943296,-0.0017453292519943296,-0.1,-0.1,-0.1,-135.04117848855185,35.22321119420292,-0.053958780599998604,24.9,0xFFFF
28,0.5600554630000261,adis16470,-0.0122583125,-0.0122583125,-0.0122583125,5.643698651490838,5.6483837054833055,5.656751035545337,-0.0017453292519943296,-0.0017453292519943296,-0.0017453292519943296,-0.1,-0.1,-0.1,-135.04231485998082,35.22207482277395,-0.05595872060000035,24.9,0xFFFF
29,0.5800574749999896,adis16470,-0.0122583125,-0.0122583125,-0.0122583125,5.643542900668227,5.6483511843103065,5.656938895592674,-0.0017453292519943296,-0.0017453292519943296,-0.0017453292519943296,-0.1,-0.1,-0.1,-135.0434287654452,35.22096091730956,-0.05795892740000002,24.9,0xFFFF
30,0.6000563019999845,adis16470,-0.0122583125,-0.0122583125,-0.0122583125,5.6433903107624195,5.648319316494261,5.657122939349234,-0.0017453292519943296,-0.0017453292519943296,-0.0017453292519943296,-0.1,-0.1,-0.1,-135.0445200497023,35.21986963305246,-0.05995878410000162,24.9,0xFFFF
31,0.620056481000006,adis16470,-0.0122583125,-0.0122583125,-0.0122583125,5.643240748574581,5.648288074617964,5.65730332769497,-0.0017453292519943296,-0.0017453292519943296,-0.0017453292519943296,-0.1,-0.1,-0.1,-135.04558966625027,35.218800016504495,-0.06195880200000377,24.9,0xFFFF
32,0.6400558810000234,adis16470,-0.0122583125,-0.0122583125,-0.0122583125,5.643094186132838,5.648257453220964,5.657480094581204,-0.0017453292519943296,-0.0017453292519943296,-0.0017453292519943296,-0.1,-0.1,-0.1,-135.04663781598725,35.21775186676749,-0.06395874390000247,24.9,0xFFFF
33,0.6600558189999788,adis16470,-0.0122583125,-0.0122583125,-0.0122583125,5.642950546745262,5.648227436648355,5.65765333271126,-0.0017453292519943296,-0.0017453292519943296,-0.0017453292519943296,-0.1,-0.1,-0.1,-135.04766504820154,35.21672463455324,-0.06595873219999933,24.9,0xFFFF
34,0.6800578680000058,adis16470,-0.0122583125,-0.0122583125,-0.0122583125,5.642809743382477,5.648198007064525,5.6578231472446125,-0.0017453292519943296,-0.0017453292519943296,-0.0017453292519943296,-0.1,-0.1,-0.1,-135.0486719860635,35.21571769669126,-0.06795897590000098,24.9,0xFFFF
35,0.7000583430000233,adis16470,-0.0122583125,-0.0122583125,-0.0122583125,5.642671781526116,5.648169165954358,5.6579895317601245,-0.0017453292519943296,-0.0017453292519943296,-0.0017453292519943296,-0.1,-0.1,-0.1,-135.04965859112824,35.214731091626525,-0.06995902159999905,24.9,0xFFFF
36,0.7200563740000234,adis16470,-0.0122583125,-0.0122583125,-0.0122583125,5.6425366138288515,5.648140903749727,5.65815254354429,-0.0017453292519943296,-0.0017453292519943296,-0.0017453292519943296,-0.1,-0.1,-0.1,-135.05062520272568,35.21376448002908,-0.0719588006000038,24.9,0xFFFF
37,0.7400545890000103,adis16470,-0.0122583125,-0.0122583125,-0.0122583125,5.6424041423464315,5.648113200286369,5.6583123008939165,-0.0017453292519943296,-0.0017453292519943296,-0.0017453292519943296,-0.1,-0.1,-0.1,-135.05157252197716,35.2128171607776,-0.07395862029999879,24.9,0xFFFF
38,0.7600558789999923,adis16470,-0.0122583125,-0.0122583125,-0.0122583125,5.642274274885064,5.648086036581925,5.658468915159313,-0.0017453292519943296,-0.0017453292519943296,-0.0017453292519943296,-0.1,-0.1,-0.1,-135.05250120883562,35.21188847391914,-0.07595876039999896,24.9,0xFFFF
39,0.7800556500000084,adis16470,-0.0122583125,-0.0122583125,-0.0122583125,5.642147026684171,5.648059416111664,5.658622368123602,-0.0017453292519943296,-0.0017453292519943296,-0.0017453292519943296,-0.1,-0.1,-0.1,-135.05341115496492,35.21097852778984,-0.07795873009999926,24.9,0xFFFF
40,0.8000552359999915,adis16470,-0.0122583125,-0.0122583125,-0.0122583125,5.6420223245989884,5.648033323852465,5.65877274815077,-0.0017453292519943296,-0.0017453292519943296,-0.0017453292519943296,-0.1,-0.1,-0.1,-135.05430288404162,35.210086798713135,-0.07995868130000193,24.9,0xFFFF
41,0.820056118000025,adis16470,-0.0122583125,-0.0122583125,-0.0122583125,5.641900097465239,5.648007745179762,5.658920141207637,-0.0017453292519943296,-0.0017453292519943296,-0.0017453292519943296,-0.1,-0.1,-0.1,-135.05517690554478,35.20921277720996,-0.08195876210000395,24.9,0xFFFF
42,0.8400554820000252,adis16470,-0.0122583125,-0.0122583125,-0.0122583125,5.641780332633863,5.647982677702415,5.659064562691041,-0.0017453292519943296,-0.0017453292519943296,-0.0017453292519943296,-0.1,-0.1,-0.1,-135.05603331049588,35.208356372258855,-0.08395870400000266,24.9,0xFFFF
43,0.8600558090000163,adis16470,-0.0122583125,-0.0122583125,-0.0122583125,5.641662949936396,5.647958104886807,5.659206109412073,-0.0017453292519943296,-0.0017453292519943296,-0.0017453292519943296,-0.1,-0.1,-0.1,-135.05687267270596,35.20751701004877,-0.0859587330000011,24.9,0xFFFF
44,0.8800553579999928,adis16470,-0.0122583125,-0.0122583125,-0.0122583125,5.641547923364145,5.647934021524178,5.659344812865668,-0.0017453292519943296,-0.0017453292519943296,-0.0017453292519943296,-0.1,-0.1,-0.1,-135.05769517867984,35.20669450407488,-0.08795869159999942,24.9,0xFFFF
45,0.9000552769999786,adis16470,-0.0122583125,-0.0122583125,-0.0122583125,5.641435192382831,5.6479104151672725,5.65948074617355,-0.0017453292519943296,-0.0017453292519943296,-0.0017453292519943296,-0.1,-0.1,-0.1,-135.05850126177825,35.20588842097647,-0.08995867799999932,24.9,0xFFFF
46,0.9200552340000172,adis16470,-0.0122583125,-0.0122583125,-0.0122583125,5.641324713921238,5.6478872770142265,5.6596139613937195,-0.0017453292519943296,-0.0017453292519943296,-0.0017453292519943296,-0.1,-0.1,-0.1,-135.0592912304667,35.205098452288034,-0.09195867180000053,24.9,0xFFFF
47,0.9400599119999811,adis16470,-0.0122583125,-0.0122583125,-0.0122583125,5.641216376992893,5.6478645840264035,5.6597445924693535,-0.0017453292519943296,-0.0017453292519943296,-0.0017453292519943296,-0.1,-0.1,-0.1,-135.06006587880537,35.204323803949364,-0.09395915439999956,24.9,0xFFFF
48,0.9600553320000245,adis16470,-0.0122583125,-0.0122583125,-0.0122583125,5.6411103367456175,5.6478423689058825,5.659872452439698,-0.0017453292519943296,-0.0017453292519943296,-0.0017453292519943296,-0.1,-0.1,-0.1,-135.06082409788527,35.20356558486947,-0.09595868160000126,24.9,0xFFFF
49,0.9800554550000129,adis16470,-0.0122583125,-0.0122583125,-0.0122583125,5.641006348841112,5.64782058066019,5.65999783602981,-0.0017453292519943296,-0.0017453292519943296,-0.0017453292519943296,-0.1,-0.1,-0.1,-135.06156763523356,35.20282204752117,-0.09795870130000142,24.9,0xFFFF
50,1.0000551329999894,adis16470,-0.0122583125,-0.0122583125,-0.0122583125,5.640904447898701,5.647799226725463,5.6601207015996655,-0.0017453292519943296,-0.0017453292519943296,-0.0017453292519943296,-0.1,-0.1,-0.1,-135.0622962437209,35.20209343903384,-0.09995866170000343,24.9,0xFFFF
51,1.0200556639999832,adis16470,-0.0122583125,-0.0122583125,-0.0122583125,5.640804565543759,5.6477782929508065,5.66024113169041,-0.0017453292519943296,-0.0017453292519943296,-0.0017453292519943296,-0.1,-0.1,-0.1,-135.0630104126325,35.20137927012225,-0.10195875740000136,24.9,0xFFFF
52,1.0400587500000142,adis16470,-0.0122583125,-0.0122583125,-0.0122583125,5.640706652584942,5.647757769195373,5.660359185707678,-0.0017453292519943296,-0.0017453292519943296,-0.0017453292519943296,-0.1,-0.1,-0.1,-135.0637104940679,35.200679188686905,-0.10395905299999986,24.9,0xFFFF
53,1.0600571690000038,adis16470,-0.0122583125,-0.0122583125,-0.0122583125,5.640610755442014,5.647737665354704,5.660474807775703,-0.0017453292519943296,-0.0017453292519943296,-0.0017453292519943296,-0.1,-0.1,-0.1,-135.06439615649253,35.19999352626226,-0.10595892270000039,24.9,0xFFFF
54,1.0800587740000083,adis16470,-0.0122583125,-0.0122583125,-0.0122583125,5.6405167371331215,5.64771795287037,5.6605881631407176,-0.0017453292519943296,-0.0017453292519943296,-0.0017453292519943296,-0.1,-0.1,-0.1,-135.06506837967666,35.1993213030781,-0.10795907199999992,24.9,0xFFFF
55,1.1000573410000243,adis16470,-0.0122583125,-0.0122583125,-0.0122583125,5.6404246395416315,5.6476986406753005,5.66069920138995,-0.0017453292519943296,-0.0017453292519943296,-0.0017453292519943296,-0.1,-0.1,-0.1,-135.06572686449513,35.19866281825963,-0.10995892139999913,24.9,0xFFFF
56,1.12005581599999,adis16470,-0.0122583125,-0.0122583125,-0.0122583125,5.640334383698454,5.647679712357172,5.660808017815535,-0.0017453292519943296,-0.0017453292519943296,-0.0017453292519943296,-0.1,-0.1,-0.1,-135.06637217589324,35.198017506861525,-0.11195876699999875,24.9,0xFFFF
57,1.140060272000028,adis16470,-0.0122583125,-0.0122583125,-0.0122583125,5.64024584926788,5.647661142815727,5.66091475757598,-0.0017453292519943296,-0.0017453292519943296,-0.0017453292519943296,-0.1,-0.1,-0.1,-135.06700517455138,35.19738450820339,-0.11395921820000016,24.9,0xFFFF
58,1.1600580809999883,adis16470,-0.0122583125,-0.0122583125,-0.0122583125,5.640159175473129,5.647642961386505,5.661019252894931,-0.0017453292519943296,-0.0017453292519943296,-0.0017453292519943296,-0.1,-0.1,-0.1,-135.06762486535837,35.196764817396414,-0.11595900830000122,24.9,0xFFFF
59,1.1800569999999766,adis16470,-0.0122583125,-0.0122583125,-0.0122583125,5.64007422106616,5.647625138571703,5.661121674137084,-0.0017453292519943296,-0.0017453292519943296,-0.0017453292519943296,-0.1,-0.1,-0.1,-135.0682322584872,35.196157424267575,-0.1179588964999994,24.9,0xFFFF
60,1.20005786400003,adis16470,-0.0122583125,-0.0122583125,-0.0122583125,5.639990938977814,5.647607664618691,5.661222078117629,-0.0017453292519943296,-0.0017453292519943296,-0.0017453292519943296,-0.1,-0.1,-0.1,-135.06882769073746,35.1955619920173,-0.1199589755000034,24.9,0xFFFF
61,1.2200566349999917,adis16470,-0.0122583125,-0.0122583125,-0.0122583125,5.639909350874976,5.647590544192335,5.661320438781834,-0.0017453292519943296,-0.0017453292519943296,-0.0017453292519943296,-0.1,-0.1,-0.1,-135.0694110074647,35.19497867529005,-0.12195884340000025,24.9,0xFFFF
62,1.2400609059999965,adis16470,-0.0122583125,-0.0122583125,-0.0122583125,5.639829319343068,5.647573748570051,5.661416921856487,-0.0017453292519943296,-0.0017453292519943296,-0.0017453292519943296,-0.1,-0.1,-0.1,-135.06998319136943,35.19440649138534,-0.12395925570000378,24.9,0xFFFF
63,1.2600554919999922,adis16470,-0.0122583125,-0.0122583125,-0.0122583125,5.6397510201442165,5.647557314749186,5.661511315511747,-0.0017453292519943296,-0.0017453292519943296,-0.0017453292519943296,-0.1,-0.1,-0.1,-135.07054298609202,35.193846696662725,-0.12595870320000138,24.9,0xFFFF
64,1.280056022999986,adis16470,-0.0122583125,-0.0122583125,-0.0122583125,5.63967420289965,5.6475411902857715,5.661603921651803,-0.0017453292519943296,-0.0017453292519943296,-0.0017453292519943296,-0.1,-0.1,-0.1,-135.0710921819362,35.19329750081856,-0.12795875990000247,24.9,0xFFFF
65,1.300055609000026,adis16470,-0.0122583125,-0.0122583125,-0.0122583125,5.639598933668529,5.647525389144673,5.661694660695107,-0.0017453292519943296,-0.0017453292519943296,-0.0017453292519943296,-0.1,-0.1,-0.1,-135.0716303068395,35.19275937591528,-0.12995872779999906,24.9,0xFFFF
66,1.3200557870000011,adis16470,-0.0122583125,-0.0122583125,-0.0122583125,5.639525164019743,5.647509901256052,5.6617835910811705,-0.0017453292519943296,-0.0017453292519943296,-0.0017453292519943296,-0.1,-0.1,-0.1,-135.0721577072687,35.19223197548607,-0.13195873450000029,24.9,0xFFFF
67,1.3400583360000269,adis16470,-0.0122583125,-0.0122583125,-0.0122583125,5.639452830451449,5.647494713379523,5.661870789413878,-0.0017453292519943296,-0.0017453292519943296,-0.0017453292519943296,-0.1,-0.1,-0.1,-135.07267483742132,35.19171484533344,-0.1339590246000001,24.9,0xFFFF
68,1.360056032999978,adis16470,-0.0122583125,-0.0122583125,-0.0122583125,5.639382018761613,5.6474798436207,5.661956152314363,-0.0017453292519943296,-0.0017453292519943296,-0.0017453292519943296,-0.1,-0.1,-0.1,-135.0731810841089,35.191208598645865,-0.13595876279999863,24.9,0xFFFF
69,1.3800558789999968,adis16470,-0.0122583125,-0.0122583125,-0.0122583125,5.63931258936154,5.647465262754517,5.6620398481045475,-0.0017453292519943296,-0.0017453292519943296,-0.0017453292519943296,-0.1,-0.1,-0.1,-135.07367744547275,35.190712237282035,-0.13795874550000356,24.9,0xFFFF
70,1.400055760999976,adis16470,-0.0122583125,-0.0122583125,-0.0122583125,5.639244547384017,5.647450971940378,5.662121870642662,-0.0017453292519943296,-0.0017453292519943296,-0.0017453292519943296,-0.1,-0.1,-0.1,-135.0741638849993,35.19022579775549,-0.13995873370000148,24.9,0xFFFF
71,1.4200554210000291,adis16470,-0.0122583125,-0.0122583125,-0.0122583125,5.639177869401229,5.647436966337082,5.662202248214727,-0.0017453292519943296,-0.0017453292519943296,-0.0017453292519943296,-0.1,-0.1,-0.1,-135.07464057035332,35.18974911240148,-0.14195869600000044,24.9,0xFFFF
72,1.4400552660000017,adis16470,-0.0122583125,-0.0122583125,-0.0122583125,5.639112522309302,5.647423239067351,5.662281020768823,-0.0017453292519943296,-0.0017453292519943296,-0.0017453292519943296,-0.1,-0.1,-0.1,-135.07510773836623,35.18928194438853,-0.143958674999999,24.9,0xFFFF
73,1.4600581490000195,adis16470,-0.0122583125,-0.0122583125,-0.0122583125,5.639048435090592,5.647409775284463,5.662358273953326,-0.0017453292519943296,-0.0017453292519943296,-0.0017453292519943296,-0.1,-0.1,-0.1,-135.07556589690492,35.18882378584985,-0.14595899469999843,24.9,0xFFFF
74,1.4800560489999839,adis16470,-0.0122583125,-0.0122583125,-0.0122583125,5.6389857044011595,5.647396595365432,5.6624338912951595,-0.0017453292519943296,-0.0017453292519943296,-0.0017453292519943296,-0.1,-0.1,-0.1,-135.07601435513484,35.18837532761994,-0.14795876630000185,24.9,0xFFFF
75,1.5000552089999815,adis16470,-0.0122583125,-0.0122583125,-0.0122583125,5.6389242031225315,5.647383672671028,5.6625080260650975,-0.0017453292519943296,-0.0017453292519943296,-0.0017453292519943296,-0.1,-0.1,-0.1,-135.07645402197215,35.18793566078262,-0.14995871930000254,24.9,0xFFFF
76,1.520056813999986,adis16470,-0.0122583125,-0.0122583125,-0.0122583125,5.638863908941307,5.647371002576225,5.66258070519575,-0.0017453292519943296,-0.0017453292519943296,-0.0017453292519943296,-0.1,-0.1,-0.1,-135.07688505707472,35.18750462568006,-0.15195883719999875,24.9,0xFFFF
77,1.540055936999977,adis16470,-0.0122583125,-0.0122583125,-0.0122583125,5.638804847503801,5.647358590532597,5.662651897807787,-0.0017453292519943296,-0.0017453292519943296,-0.0017453292519943296,-0.1,-0.1,-0.1,-135.0773072772392,35.187082405515554,-0.15395875689999916,24.9,0xFFFF
78,1.560058153,adis16470,-0.0122583125,-0.0122583125,-0.0122583125,5.638746922060384,5.64734641626703,5.662721720556414,-0.0017453292519943296,-0.0017453292519943296,-0.0017453292519943296,-0.1,-0.1,-0.1,-135.07772137424445,35.18666830851033,-0.1559590044000004,24.9,0xFFFF
79,1.5800594980000255,adis16470,-0.0122583125,-0.0122583125,-0.0122583125,5.638690167533718,5.647334487175864,5.662790131377965,-0.0017453292519943296,-0.0017453292519943296,-0.0017453292519943296,-0.1,-0.1,-0.1,-135.07812709856157,35.18626258419321,-0.15795915930000326,24.9,0xFFFF
80,1.6000567689999912,adis16470,-0.0122583125,-0.0122583125,-0.0122583125,5.6386346125555225,5.647322809334099,5.662857095792285,-0.0017453292519943296,-0.0017453292519943296,-0.0017453292519943296,-0.1,-0.1,-0.1,-135.07852424563634,35.18586543711844,-0.15995884200000324,24.9,0xFFFF
81,1.620055485000023,adis16470,-0.0122583125,-0.0122583125,-0.0122583125,5.638580143545637,5.647311358920621,5.662922750735924,-0.0017453292519943296,-0.0017453292519943296,-0.0017453292519943296,-0.1,-0.1,-0.1,-135.07891362754162,35.185476055213165,-0.1619587061000005,24.9,0xFFFF
82,1.6400587560000304,adis16470,-0.0122583125,-0.0122583125,-0.0122583125,5.638526695611716,5.647300122342468,5.6629871744550195,-0.0017453292519943296,-0.0017453292519943296,-0.0017453292519943296,-0.1,-0.1,-0.1,-135.0792957082808,35.18509397447399,-0.16395906660000042,24.9,0xFFFF
83,1.6600568420000172,adis16470,-0.0122583125,-0.0122583125,-0.0122583125,5.6384743923129585,5.647289125624983,5.663050218044409,-0.0017453292519943296,-0.0017453292519943296,-0.0017453292519943296,-0.1,-0.1,-0.1,-135.07966960468121,35.184720078073596,-0.16595887330000214,24.9,0xFFFF
84,1.6800583360000019,adis16470,-0.0122583125,-0.0122583125,-0.0122583125,5.638423086851383,5.647278337951541,5.6631120584731605,-0.0017453292519943296,-0.0017453292519943296,-0.0017453292519943296,-0.1,-0.1,-0.1,-135.0800363662516,35.18435331650321,-0.16795903010000193,24.9,0xFFFF
85,1.7000556990000177,adis16470,-0.0122583125,-0.0122583125,-0.0122583125,5.638372870500743,5.647267778559011,5.66317258575098,-0.0017453292519943296,-0.0017453292519943296,-0.0017453292519943296,-0.1,-0.1,-0.1,-135.08039534061456,35.18399434214024,-0.16995872570000192,24.9,0xFFFF
86,1.720055971000022,adis16470,-0.0122583125,-0.0122583125,-0.0122583125,5.638323608744455,5.647257419205023,5.663231962039167,-0.0017453292519943296,-0.0017453292519943296,-0.0017453292519943296,-0.1,-0.1,-0.1,-135.08074748946626,35.18364219328853,-0.17195878250000196,24.9,0xFFFF
87,1.7400570199999947,adis16470,-0.0122583125,-0.0122583125,-0.0122583125,5.638275322625392,5.647247264354986,5.663290161996885,-0.0017453292519943296,-0.0017453292519943296,-0.0017453292519943296,-0.1,-0.1,-0.1,-135.08109266247095,35.18329702028386,-0.17395890779999948,24.9,0xFFFF
88,1.7600564759999884,adis16470,-0.0122583125,-0.0122583125,-0.0122583125,5.638228027433018,5.647237317264575,5.663347167218091,-0.0017453292519943296,-0.0017453292519943296,-0.0017453292519943296,-0.1,-0.1,-0.1,-135.08143075042156,35.18295893233327,-0.17595884780000123,24.9,0xFFFF
89,1.7800562290000244,adis16470,-0.0122583125,-0.0122583125,-0.0122583125,5.6381816723465,5.647227567283879,5.663403038979206,-0.0017453292519943296,-0.0017453292519943296,-0.0017453292519943296,-0.1,-0.1,-0.1,-135.08176211669513,35.18262756605969,-0.17795882870000243,24.9,0xFFFF
90,1.800055795999981,adis16470,-0.0122583125,-0.0122583125,-0.0122583125,5.638136253075732,5.647218013547379,5.663457782471759,-0.0017453292519943296,-0.0017453292519943296,-0.0017453292519943296,-0.1,-0.1,-0.1,-135.08208679204122,35.18230289071359,-0.17995874470000217,24.9,0xFFFF
91,1.8200557900000263,adis16470,-0.0122583125,-0.0122583125,-0.0122583125,5.638091732883865,5.647208648362944,5.663511441994212,-0.0017453292519943296,-0.0017453292519943296,-0.0017453292519943296,-0.1,-0.1,-0.1,-135.0824050391484,35.18198464360641,-0.18195872730000248,24.9,0xFFFF
92,1.84005524600002,adis16470,-0.0122583125,-0.0122583125,-0.0122583125,5.638048107738736,5.647199470916202,5.663564022425458,-0.0017453292519943296,-0.0017453292519943296,-0.0017453292519943296,-0.1,-0.1,-0.1,-135.08271688691542,35.181672795839376,-0.18395867479999878,24.9,0xFFFF
93,1.8600556470000242,adis16470,-0.0122583125,-0.0122583125,-0.0122583125,5.638005342746334,5.647190473898911,5.663615565840691,-0.0017453292519943296,-0.0017453292519943296,-0.0017453292519943296,-0.1,-0.1,-0.1,-135.08302258484912,35.18136709790568,-0.18595871119999854,24.9,0xFFFF
94,1.880055177000031,adis16470,-0.0122583125,-0.0122583125,-0.0122583125,5.637963444071042,5.6471816586392185,5.66366606482771,-0.0017453292519943296,-0.0017453292519943296,-0.0017453292519943296,-0.1,-0.1,-0.1,-135.08332208895416,35.18106759380065,-0.1879586661000019,24.9,0xFFFF
95,1.9000553930000024,adis16470,-0.0122583125,-0.0122583125,-0.0122583125,5.6379223740751385,5.647173017248422,5.663715564766816,-0.0017453292519943296,-0.0017453292519943296,-0.0017453292519943296,-0.1,-0.1,-0.1,-135.0836156683431,35.18077401441173,-0.18995868769999902,24.9,0xFFFF
96,1.9200553680000212,adis16470,-0.0122583125,-0.0122583125,-0.0122583125,5.637882128899747,5.6471645489433495,5.663764070325091,-0.0017453292519943296,-0.0017453292519943296,-0.0017453292519943296,-0.1,-0.1,-0.1,-135.08390335066426,35.18048633209058,-0.19195868330000393,24.9,0xFFFF
97,1.9400551020000307,adis16470,-0.0122583125,-0.0122583125,-0.0122583125,5.637842691272741,5.647156250117459,5.663811602335413,-0.0017453292519943296,-0.0017453292519943296,-0.0017453292519943296,-0.1,-0.1,-0.1,-135.08418525944498,35.18020442330986,-0.19395865860000186,24.9,0xFFFF
98,1.9600559470000007,adis16470,-0.0122583125,-0.0122583125,-0.0122583125,5.637804027034005,5.647148113608871,5.663858201983923,-0.0017453292519943296,-0.0017453292519943296,-0.0017453292519943296,-0.1,-0.1,-0.1,-135.08446163892808,35.17992804382676,-0.1959587450000015,24.9,0xFFFF
99,1.9800553300000274,adis16470,-0.0122583125,-0.0122583125,-0.0122583125,5.63776615677772,5.647140143777082,5.663903844464122,-0.0017453292519943296,-0.0017453292519943296,-0.0017453292519943296,-0.1,-0.1,-0.1,-135.08473234195952,35.179657340795316,-0.19795867949999887,24.9,0xFFFF
100,2.0000553049999894,adis16470,-0.0122583125,-0.0122583125,-0.0122583125,5.637729034659709,5.647132330998883,5.663948585042801,-0.0017453292519943296,-0.0017453292519943296,-0.0017453292519943296,-0.1,-0.1,-0.1,-135.08499769629634,35.1793919864585,-0.19995868070000142,24.9,0xFFFF
101,2.020055630999991,adis16470,-0.0122583125,-0.0122583125,-0.0122583125,5.637692650547864,5.647124673165211,5.663992435944576,-0.0017453292519943296,-0.0017453292519943296,-0.0017453292519943296,-0.1,-0.1,-0.1,-135.08525777441642,35.17913190833842,-0.20195871340000052,24.9,0xFFFF
102,2.0400561989999915,adis16470,-0.0122583125,-0.0122583125,-0.0122583125,5.637656982845404,5.647117165752963,5.664035423210923,-0.0017453292519943296,-0.0017453292519943296,-0.0017453292519943296,-0.1,-0.1,-0.1,-135.0855127307461,35.17887695200874,-0.2039588275000028,24.9,0xFFFF
103,2.0600561370000037,adis16470,-0.0122583125,-0.0122583125,-0.0122583125,5.637622051476092,5.647109812977669,5.664077522841734,-0.0017453292519943296,-0.0017453292519943296,-0.0017453292519943296,-0.1,-0.1,-0.1,-135.08576242291718,35.178627259837654,-0.20595877320000108,24.9,0xFFFF
104,2.0800557599999934,adis16470,-0.0122583125,-0.0122583125,-0.0122583125,5.637587817121959,5.6471026065844105,5.664118782235321,-0.0017453292519943296,-0.0017453292519943296,-0.0017453292519943296,-0.1,-0.1,-0.1,-135.08600713202486,35.17838255073,-0.20795872990000244,24.9,0xFFFF
105,2.100055215999987,adis16470,-0.0122583125,-0.0122583125,-0.0122583125,5.637554267601701,5.6470955440290345,5.664159216083894,-0.0017453292519943296,-0.0017453292519943296,-0.0017453292519943296,-0.1,-0.1,-0.1,-135.0862469451864,35.17814273756849,-0.20995868480000007,24.9,0xFFFF
106,2.120055136000019,adis16470,-0.0122583125,-0.0122583125,-0.0122583125,5.6375213851644075,5.647088621593983,5.6641988457916135,-0.0017453292519943296,-0.0017453292519943296,-0.0017453292519943296,-0.1,-0.1,-0.1,-135.08648198932866,35.17790769342622,-0.2119586674999993,24.9,0xFFFF
107,2.140054166000027,adis16470,-0.0122583125,-0.0122583125,-0.0122583125,5.637489171457393,5.647081839644642,5.664237669383593,-0.0017453292519943296,-0.0017453292519943296,-0.0017453292519943296,-0.1,-0.1,-0.1,-135.0867122527181,35.17767743003678,-0.21395856870000213,24.9,0xFFFF
108,2.160054473999992,adis16470,-0.0122583125,-0.0122583125,-0.0122583125,5.637457584921633,5.647075189449273,5.66427573695622,-0.0017453292519943296,-0.0017453292519943296,-0.0017453292519943296,-0.1,-0.1,-0.1,-135.08693803245774,35.17745165029714,-0.2159585939999999,24.9,0xFFFF
109,2.180055263999975,adis16470,-0.0122583125,-0.0122583125,-0.0122583125,5.63742662063996,5.647068669989332,5.664313054444971,-0.0017453292519943296,-0.0017453292519943296,-0.0017453292519943296,-0.1,-0.1,-0.1,-135.08715936373258,35.17723031902228,-0.21795868780000086,24.9,0xFFFF
110,2.2000552200000243,adis16470,-0.0122583125,-0.0122583125,-0.0122583125,5.6373962905474535,5.647062283794189,5.6643496074751924,-0.0017453292519943296,-0.0017453292519943296,-0.0017453292519943296,-0.1,-0.1,-0.1,-135.08737616126797,35.17701352148693,-0.2199586723000038,24.9,0xFFFF
111,2.2200554359999956,adis16470,-0.0122583125,-0.0122583125,-0.0122583125,5.637366562152293,5.64705602403836,5.664385435214086,-0.0017453292519943296,-0.0017453292519943296,-0.0017453292519943296,-0.1,-0.1,-0.1,-135.08758865734862,35.176801025406284,-0.2219586919999983,24.9,0xFFFF
112,2.2400559289999933,adis16470,-0.0122583125,-0.0122583125,-0.0122583125,5.637337424438162,5.647049888417206,5.664420550946599,-0.0017453292519943296,-0.0017453292519943296,-0.0017453292519943296,-0.1,-0.1,-0.1,-135.08779693075167,35.176592752003245,-0.22395873950000003,24.9,0xFFFF
113,2.260055534000003,adis16470,-0.0122583125,-0.0122583125,-0.0122583125,5.637308881087131,5.6470438777206855,5.664454950243448,-0.0017453292519943296,-0.0017453292519943296,-0.0017453292519943296,-0.1,-0.1,-0.1,-135.0880009551906,35.17638872756428,-0.22595870179999902,24.9,0xFFFF
114,2.2800552680000123,adis16470,-0.0122583125,-0.0122583125,-0.0122583125,5.637280907258551,5.647037986731888,5.664488663049481,-0.0017453292519943296,-0.0017453292519943296,-0.0017453292519943296,-0.1,-0.1,-0.1,-135.0882009082548,35.17618877450008,-0.22795867340000198,24.9,0xFFFF
115,2.300055150999981,adis16470,-0.0122583125,-0.0122583125,-0.0122583125,5.637253490563852,5.6470322128552635,5.664521704302338,-0.0017453292519943296,-0.0017453292519943296,-0.0017453292519943296,-0.1,-0.1,-0.1,-135.0883968785257,35.175992804229175,-0.2299586615999999,24.9,0xFFFF
116,2.320056643999976,adis16470,-0.0122583125,-0.0122583125,-0.0122583125,5.637226599790849,5.647026549530186,5.664554111624476,-0.0017453292519943296,-0.0017453292519943296,-0.0017453292519943296,-0.1,-0.1,-0.1,-135.0885890891312,35.175800593623684,-0.23195881280000205,24.9,0xFFFF
117,2.3400561930000094,adis16470,-0.0122583125,-0.0122583125,-0.0122583125,5.637200273685349,5.647021004929115,5.664585838328491,-0.0017453292519943296,-0.0017453292519943296,-0.0017453292519943296,-0.1,-0.1,-0.1,-135.0887772631506,35.175612419604306,-0.2339587676999997,24.9,0xFFFF
118,2.3600557970000295,adis16470,-0.0122583125,-0.0122583125,-0.0122583125,5.637174473796048,5.647015570965901,5.6646169307605065,-0.0017453292519943296,-0.0017453292519943296,-0.0017453292519943296,-0.1,-0.1,-0.1,-135.08896167545362,35.175428007301306,-0.23595872440000104,24.9,0xFFFF
119,2.380055958000014,adis16470,-0.0122583125,-0.0122583125,-0.0122583125,5.637149181210093,5.647010243668416,5.664647411719461,-0.0017453292519943296,-0.0017453292519943296,-0.0017453292519943296,-0.1,-0.1,-0.1,-135.08914246125053,35.17524722150437,-0.23795874410000123,24.9,0xFFFF
120,2.4000556359999905,adis16470,-0.0122583125,-0.0122583125,-0.0122583125,5.637124401523378,5.647005024226223,5.664677274467692,-0.0017453292519943296,-0.0017453292519943296,-0.0017453292519943296,-0.1,-0.1,-0.1,-135.08931958056755,35.17507010218737,-0.2399587120000035,24.9,0xFFFF
121,2.420056222000028,adis16470,-0.0122583125,-0.0122583125,-0.0122583125,5.637100105189271,5.646999906426257,5.664706554618606,-0.0017453292519943296,-0.0017453292519943296,-0.0017453292519943296,-0.1,-0.1,-0.1,-135.08949324462017,35.17489643813471,-0.24195876880000353,24.9,0xFFFF
122,2.4400553080000122,adis16470,-0.0122583125,-0.0122583125,-0.0122583125,5.637076315311188,5.646994895145215,5.664735224335387,-0.0017453292519943296,-0.0017453292519943296,-0.0017453292519943296,-0.1,-0.1,-0.1,-135.0896632882938,35.17472639446111,-0.2439586754999993,24.9,0xFFFF
123,2.4600552460000245,adis16470,-0.0122583125,-0.0122583125,-0.0122583125,5.637052988733088,5.646989981302152,5.664763335631837,-0.0017453292519943296,-0.0017453292519943296,-0.0017453292519943296,-0.1,-0.1,-0.1,-135.0898300200779,35.17455966267698,-0.24595867300000118,24.9,0xFFFF
124,2.4800556659999984,adis16470,-0.0122583125,-0.0122583125,-0.0122583125,5.637030122799373,5.646985164346779,5.664790891713394,-0.0017453292519943296,-0.0017453292519943296,-0.0017453292519943296,-0.1,-0.1,-0.1,-135.08999345897436,35.174396223780526,-0.24795871310000162,24.9,0xFFFF
125,2.5000615480000192,adis16470,-0.0122583125,-0.0122583125,-0.0122583125,5.637007622236645,5.646980424216732,5.664818007399962,-0.0017453292519943296,-0.0017453292519943296,-0.0017453292519943296,-0.1,-0.1,-0.1,-135.0901542859869,35.174235396768005,-0.24995942350000172,24.9,0xFFFF
126,2.520056151999995,adis16470,-0.0122583125,-0.0122583125,-0.0122583125,5.63698575723092,5.646975817840833,5.664844357092603,-0.0017453292519943296,-0.0017453292519943296,-0.0017453292519943296,-0.1,-0.1,-0.1,-135.09031056993118,35.17407911282373,-0.2519587803000035,24.9,0xFFFF
127,2.540056478999986,adis16470,-0.0122583125,-0.0122583125,-0.0122583125,5.636964238088391,5.646971284197416,5.664870289908756,-0.0017453292519943296,-0.0017453292519943296,-0.0017453292519943296,-0.1,-0.1,-0.1,-135.09046438146456,35.17392530129035,-0.2539588036999987,24.9,0xFFFF
128,2.560061657999995,adis16470,-0.0122583125,-0.0122583125,-0.0122583125,5.636943068793002,5.646966824132151,5.664895801050911,-0.0017453292519943296,-0.0017453292519943296,-0.0017453292519943296,-0.1,-0.1,-0.1,-135.09061569212528,35.17377399062963,-0.2559594142000037,24.9,0xFFFF
129,2.580057355000008,adis16470,-0.0122583125,-0.0122583125,-0.0122583125,5.636922477476181,5.6469624857173235,5.66492061560228,-0.0017453292519943296,-0.0017453292519943296,-0.0017453292519943296,-0.1,-0.1,-0.1,-135.0907628713288,35.17362681142613,-0.2579588968999985,24.9,0xFFFF
130,2.600055348000012,adis16470,-0.0122583125,-0.0122583125,-0.0122583125,5.6369022548014325,5.646958224855799,5.664944985838468,-0.0017453292519943296,-0.0017453292519943296,-0.0017453292519943296,-0.1,-0.1,-0.1,-135.09090741535422,35.1734822674007,-0.25995869430000196,24.9,0xFFFF
131,2.6200561940000284,adis16470,-0.0122583125,-0.0122583125,-0.0122583125,5.636882397167618,5.646954040795109,5.664968916102715,-0.0017453292519943296,-0.0017453292519943296,-0.0017453292519943296,-0.1,-0.1,-0.1,-135.09104934995514,35.17334033279977,-0.2619587789000036,24.9,0xFFFF
132,2.6400555580000287,adis16470,-0.0122583125,-0.0122583125,-0.0122583125,5.636862957740233,5.646949944743952,5.664992342329435,-0.0017453292519943296,-0.0017453292519943296,-0.0017453292519943296,-0.1,-0.1,-0.1,-135.09118829514006,35.17320138761487,-0.2639587097000003,24.9,0xFFFF
133,2.6600559400000066,adis16470,-0.0122583125,-0.0122583125,-0.0122583125,5.636843893097718,5.64694592755957,5.665015316849105,-0.0017453292519943296,-0.0017453292519943296,-0.0017453292519943296,-0.1,-0.1,-0.1,-135.09132456128327,35.173065121471666,-0.2659587423999994,24.9,0xFFFF
134,2.680057656000031,adis16470,-0.0122583125,-0.0122583125,-0.0122583125,5.636825185599475,5.646941985530751,5.665037860923476,-0.0017453292519943296,-0.0017453292519943296,-0.0017453292519943296,-0.1,-0.1,-0.1,-135.09145827448563,35.17293140826932,-0.2679589510000027,24.9,0xFFFF
135,2.700058222999985,adis16470,-0.0122583125,-0.0122583125,-0.0122583125,5.636806872280514,5.646938126467431,5.665059929925648,-0.0017453292519943296,-0.0017453292519943296,-0.0017453292519943296,-0.1,-0.1,-0.1,-135.0915891700499,35.172800512705024,-0.2699590133000015,24.9,0xFFFF
136,2.7200558459999797,adis16470,-0.0122583125,-0.0122583125,-0.0122583125,5.636788970898101,5.646934354117741,5.665081502460215,-0.0017453292519943296,-0.0017453292519943296,-0.0017453292519943296,-0.1,-0.1,-0.1,-135.0917171210689,35.172672561686014,-0.27195874230000067,24.9,0xFFFF
137,2.740055266000013,adis16470,-0.0122583125,-0.0122583125,-0.0122583125,5.63677139883254,5.6469306510769,5.665102678093392,-0.0017453292519943296,-0.0017453292519943296,-0.0017453292519943296,-0.1,-0.1,-0.1,-135.0918427180835,35.17254696467138,-0.2739586804999987,24.9,0xFFFF
138,2.7600569439999845,adis16470,-0.0122583125,-0.0122583125,-0.0122583125,5.636754141367799,5.646927014248521,5.665123474561773,-0.0017453292519943296,-0.0017453292519943296,-0.0017453292519943296,-0.1,-0.1,-0.1,-135.09196606628785,35.17242361646705,-0.27595888719999945,24.9,0xFFFF
139,2.780058660000009,adis16470,-0.0122583125,-0.0122583125,-0.0122583125,5.636737233332224,5.646923450977157,5.665143849897452,-0.0017453292519943296,-0.0017453292519943296,-0.0017453292519943296,-0.1,-0.1,-0.1,-135.0920869167561,35.1723027659988,-0.2779590625000026,24.9,0xFFFF
140,2.800056763999976,adis16470,-0.0122583125,-0.0122583125,-0.0122583125,5.6367207182773225,5.646919970446346,5.665163751620874,-0.0017453292519943296,-0.0017453292519943296,-0.0017453292519943296,-0.1,-0.1,-0.1,-135.09220495821498,35.17218472453992,-0.27995883780000097,24.9,0xFFFF
141,2.820057664999979,adis16470,-0.0122583125,-0.0122583125,-0.0122583125,5.636704487293832,5.646916549708318,5.665183310977504,-0.0017453292519943296,-0.0017453292519943296,-0.0017453292519943296,-0.1,-0.1,-0.1,-135.09232096910466,35.17206871365021,-0.2819589500999996,24.9,0xFFFF
142,2.840056844000003,adis16470,-0.0122583125,-0.0122583125,-0.0122583125,5.636688610359037,5.646913203515408,5.665202443642772,-0.0017453292519943296,-0.0017453292519943296,-0.0017453292519943296,-0.1,-0.1,-0.1,-135.0924344492726,35.171955233482294,-0.28395884760000173,24.9,0xFFFF
143,2.86006143000003,adis16470,-0.0122583125,-0.0122583125,-0.0122583125,5.636672975022838,5.646909908171866,5.665221285128088,-0.0017453292519943296,-0.0017453292519943296,-0.0017453292519943296,-0.1,-0.1,-0.1,-135.09254620246313,35.171843480291734,-0.2859592988000031,24.9,0xFFFF
144,2.8800553120000245,adis16470,-0.0122583125,-0.0122583125,-0.0122583125,5.636657799136788,5.646906709597252,5.665239572912315,-0.0017453292519943296,-0.0017453292519943296,-0.0017453292519943296,-0.1,-0.1,-0.1,-135.09265467159787,35.171735011157,-0.2879586796000012,24.9,0xFFFF
145,2.9000566760000197,adis16470,-0.0122583125,-0.0122583125,-0.0122583125,5.636642821872004,5.646903552821723,5.665257621311108,-0.0017453292519943296,-0.0017453292519943296,-0.0017453292519943296,-0.1,-0.1,-0.1,-135.09276172095193,35.17162796180295,-0.28995882529999906,24.9,0xFFFF
146,2.920056150999983,adis16470,-0.0122583125,-0.0122583125,-0.0122583125,5.636628172076804,5.646900465006114,5.665275275057277,-0.0017453292519943296,-0.0017453292519943296,-0.0017453292519943296,-0.1,-0.1,-0.1,-135.0928664295949,35.171523253159975,-0.29195876720000347,24.9,0xFFFF
147,2.940056033000019,adis16470,-0.0122583125,-0.0122583125,-0.0122583125,5.636613809418229,5.6468974376530445,5.665292582756225,-0.0017453292519943296,-0.0017453292519943296,-0.0017453292519943296,-0.1,-0.1,-0.1,-135.09296908581302,35.17142059694188,-0.2939587517000007,24.9,0xFFFF
148,2.9600599899999906,adis16470,-0.0122583125,-0.0122583125,-0.0122583125,5.636599677107331,5.6468944587957255,5.66530961284315,-0.0017453292519943296,-0.0017453292519943296,-0.0017453292519943296,-0.1,-0.1,-0.1,-135.09307009550878,35.17131958724613,-0.2959591510999985,24.9,0xFFFF
149,2.9800551679999785,adis16470,-0.0122583125,-0.0122583125,-0.0122583125,5.636585949058099,5.646891565096126,5.665326155745793,-0.0017453292519943296,-0.0017453292519943296,-0.0017453292519943296,-0.1,-0.1,-0.1,-135.0931682156526,35.1712214671023,-0.2979586633999986,24.9,0xFFFF
150,3.0000581799999964,adis16470,-0.0122583125,-0.0122583125,-0.0122583125,5.6365723828197645,5.646888705451991,5.665342503629846,-0.0017453292519943296,-0.0017453292519943296,-0.0017453292519943296,-0.1,-0.1,-0.1,-135.09326517914957,35.17112450360534,-0.29995899790000063,24.9,0xFFFF
151,3.0200580630000218,adis16470,-0.0122583125,-0.0122583125,-0.0122583125,5.636559136387299,5.646885913170029,5.665358466106316,-0.0017453292519943296,-0.0017453292519943296,-0.0017453292519943296,-0.1,-0.1,-0.1,-135.0933598567506,35.17102982600432,-0.3019589787000029,24.9,0xFFFF
152,3.0400560929999756,adis16470,-0.0122583125,-0.0122583125,-0.0122583125,5.636546181523277,5.646883182301362,5.665374077204341,-0.0017453292519943296,-0.0017453292519943296,-0.0017453292519943296,-0.1,-0.1,-0.1,-135.0934524502876,35.17093723246733,-0.3039587651000033,24.9,0xFFFF
153,3.0600597349999816,adis16470,-0.0122583125,-0.0122583125,-0.0122583125,5.636533407025585,5.646880489407323,5.665389470928109,-0.0017453292519943296,-0.0017453292519943296,-0.0017453292519943296,-0.1,-0.1,-0.1,-135.09354375457184,35.17084592818308,-0.3059591256000032,24.9,0xFFFF
154,3.080056376000016,adis16470,-0.0122583125,-0.0122583125,-0.0122583125,5.636520983996926,5.646877870559623,5.665404441094389,-0.0017453292519943296,-0.0017453292519943296,-0.0017453292519943296,-0.1,-0.1,-0.1,-135.0936325466724,35.17075713608251,-0.3079587860000003,24.9,0xFFFF
155,3.1000556850000294,adis16470,-0.0122583125,-0.0122583125,-0.0122583125,5.636508771065058,5.646875295959127,5.665419158063142,-0.0017453292519943296,-0.0017453292519943296,-0.0017453292519943296,-0.1,-0.1,-0.1,-135.09371983703699,35.17066984571795,-0.30995872610000097,24.9,0xFFFF
156,3.1200557340000046,adis16470,-0.0122583125,-0.0122583125,-0.0122583125,5.636496794508786,5.646872771147956,5.6654335901688695,-0.0017453292519943296,-0.0017453292519943296,-0.0017453292519943296,-0.1,-0.1,-0.1,-135.09380543784624,35.17058424490868,-0.3119587236000029,24.9,0xFFFF
157,3.1400560600000063,adis16470,-0.0122583125,-0.0122583125,-0.0122583125,5.636485052905522,5.6468702958286,5.665447739127179,-0.0017453292519943296,-0.0017453292519943296,-0.0017453292519943296,-0.1,-0.1,-0.1,-135.09388935927333,35.170500323481605,-0.3139587543999993,24.9,0xFFFF
158,3.1600595169999792,adis16470,-0.0122583125,-0.0122583125,-0.0122583125,5.636473502698614,5.646867860820738,5.665461657426233,-0.0017453292519943296,-0.0017453292519943296,-0.0017453292519943296,-0.1,-0.1,-0.1,-135.09397191263787,35.170417770117055,-0.31595910190000037,24.9,0xFFFF
159,3.18005606600002,adis16470,-0.0122583125,-0.0122583125,-0.0122583125,5.636462278956925,5.646865494602025,5.665475182305968,-0.0017453292519943296,-0.0017453292519943296,-0.0017453292519943296,-0.1,-0.1,-0.1,-135.09405213256113,35.1703375501938,-0.31795875310000377,24.9,0xFFFF
160,3.2000561149999953,adis16470,-0.0122583125,-0.0122583125,-0.0122583125,5.636451231428874,5.64686316549843,5.665488494824513,-0.0017453292519943296,-0.0017453292519943296,-0.0017453292519943296,-0.1,-0.1,-0.1,-135.09413109294792,35.17025858980702,-0.31995875620000325,24.9,0xFFFF
161,3.2200555900000154,adis16470,-0.0122583125,-0.0122583125,-0.0122583125,5.636440411957204,5.646860884441623,5.665501532511264,-0.0017453292519943296,-0.0017453292519943296,-0.0017453292519943296,-0.1,-0.1,-0.1,-135.09420842326497,35.170181259489965,-0.3219587074000002,24.9,0xFFFF
162,3.2400551759999985,adis16470,-0.0122583125,-0.0122583125,-0.0122583125,5.636429807603531,5.646858648705853,5.665514310958377,-0.0017453292519943296,-0.0017453292519943296,-0.0017453292519943296,-0.1,-0.1,-0.1,-135.09428421599168,35.17010546676325,-0.32395866780000226,24.9,0xFFFF
163,3.2600594470000033,adis16470,-0.0122583125,-0.0122583125,-0.0122583125,5.636419351582819,5.646856444212339,5.665526910644011,-0.0017453292519943296,-0.0017453292519943296,-0.0017453292519943296,-0.1,-0.1,-0.1,-135.09435894846587,35.170030734289085,-0.32595909309999904,24.9,0xFFFF
164,3.2800559410000005,adis16470,-0.0122583125,-0.0122583125,-0.0122583125,5.636409211074135,5.646854306210293,5.665539130115645,-0.0017453292519943296,-0.0017453292519943296,-0.0017453292519943296,-0.1,-0.1,-0.1,-135.09443142581057,35.16995825694439,-0.32795874239999984,24.9,0xFFFF
165,3.3000552490000246,adis16470,-0.0122583125,-0.0122583125,-0.0122583125,5.636399235262671,5.646852202904335,5.665551151108644,-0.0017453292519943296,-0.0017453292519943296,-0.0017453292519943296,-0.1,-0.1,-0.1,-135.09450272595035,35.169886956804596,-0.32995866960000053,24.9,0xFFFF
166,3.32005518699998,adis16470,-0.0122583125,-0.0122583125,-0.0122583125,5.636389449580294,5.646850139658028,5.665562942978093,-0.0017453292519943296,-0.0017453292519943296,-0.0017453292519943296,-0.1,-0.1,-0.1,-135.09457266711934,35.169817015635594,-0.3319586651999997,24.9,0xFFFF
167,3.3400556799999777,adis16470,-0.0122583125,-0.0122583125,-0.0122583125,5.6363798519798065,5.646848116041301,5.665574508191773,-0.0017453292519943296,-0.0017453292519943296,-0.0017453292519943296,-0.1,-0.1,-0.1,-135.09464126395295,35.16974841880197,-0.3339587164000022,24.9,0xFFFF
168,3.3600564700000177,adis16470,-0.0122583125,-0.0122583125,-0.0122583125,5.636370442511674,5.646846132066325,5.665585846689728,-0.0017453292519943296,-0.0017453292519943296,-0.0017453292519943296,-0.1,-0.1,-0.1,-135.09470851609387,35.16968116666103,-0.3359587954000005,24.9,0xFFFF
169,3.3800560000000246,adis16470,-0.0122583125,-0.0122583125,-0.0122583125,5.636361238501868,5.646844191387823,5.665596937594882,-0.0017453292519943296,-0.0017453292519943296,-0.0017453292519943296,-0.1,-0.1,-0.1,-135.09477429971201,35.169615383042895,-0.33795874840000123,24.9,0xFFFF
170,3.4000554009999746,adis16470,-0.0122583125,-0.0122583125,-0.0122583125,5.636352219826494,5.646842289764167,5.665607805157543,-0.0017453292519943296,-0.0017453292519943296,-0.0017453292519943296,-0.1,-0.1,-0.1,-135.09483875864177,35.16955092411313,-0.3399586922000025,24.9,0xFFFF
171,3.420055246000004,adis16470,-0.0122583125,-0.0122583125,-0.0122583125,5.636343376691229,5.646840425131565,5.665618461180705,-0.0017453292519943296,-0.0017453292519943296,-0.0017453292519943296,-0.1,-0.1,-0.1,-135.0949019628889,35.169487719865955,-0.3419586712000011,24.9,0xFFFF
172,3.440055276999999,adis16470,-0.0122583125,-0.0122583125,-0.0122583125,5.636334707121229,5.646838597074911,5.6656289080448055,-0.0017453292519943296,-0.0017453292519943296,-0.0017453292519943296,-0.1,-0.1,-0.1,-135.09496392657115,35.16942575618373,-0.3439586742000017,24.9,0xFFFF
173,3.4600643260000084,adis16470,-0.0122583125,-0.0122583125,-0.0122583125,5.636326082691986,5.646836778515553,5.665639300502303,-0.0017453292519943296,-0.0017453292519943296,-0.0017453292519943296,-0.1,-0.1,-0.1,-135.09502556757374,35.16936411518114,-0.34595961250000185,24.9,0xFFFF
174,3.480058504999988,adis16470,-0.0122583125,-0.0122583125,-0.0122583125,5.636317833388298,5.646835039036069,5.6656492409215895,-0.0017453292519943296,-0.0017453292519943296,-0.0017453292519943296,-0.1,-0.1,-0.1,-135.09508452741426,35.16930515534061,-0.34795907289999944,24.9,0xFFFF
175,3.5000578309999923,adis16470,-0.0122583125,-0.0122583125,-0.0122583125,5.636309690393027,5.646833321954352,5.665659053228549,-0.0017453292519943296,-0.0017453292519943296,-0.0017453292519943296,-0.1,-0.1,-0.1,-135.09514272739997,35.169246955354886,-0.34995896120000225,24.9,0xFFFF
176,3.520055620999983,adis16470,-0.0122583125,-0.0122583125,-0.0122583125,5.6363017237305,5.646831642037131,5.665668653044434,-0.0017453292519943296,-0.0017453292519943296,-0.0017453292519943296,-0.1,-0.1,-0.1,-135.095199667052,35.16919001570288,-0.3519587511999987,24.9,0xFFFF
177,3.540056558999993,adis16470,-0.0122583125,-0.0122583125,-0.0122583125,5.636293879045412,5.6468299878236,5.665678105867861,-0.0017453292519943296,-0.0017453292519943296,-0.0017453292519943296,-0.1,-0.1,-0.1,-135.09525573486297,35.16913394789191,-0.35395881360000203,24.9,0xFFFF
178,3.5600619040000083,adis16470,-0.0122583125,-0.0122583125,-0.0122583125,5.636286126776789,5.646828353080934,5.665687447320122,-0.0017453292519943296,-0.0017453292519943296,-0.0017453292519943296,-0.1,-0.1,-0.1,-135.09531114211373,35.16907854064116,-0.35595934620000097,24.9,0xFFFF
179,3.5800554900000066,adis16470,-0.0122583125,-0.0122583125,-0.0122583125,5.636278690522818,5.646826784961234,5.665696407967061,-0.0017453292519943296,-0.0017453292519943296,-0.0017453292519943296,-0.1,-0.1,-0.1,-135.09536429069945,35.16902539205543,-0.3579587048000008,24.9,0xFFFF
180,3.6000558169999977,adis16470,-0.0122583125,-0.0122583125,-0.0122583125,5.636271309544468,5.646825228482352,5.665705301998495,-0.0017453292519943296,-0.0017453292519943296,-0.0017453292519943296,-0.1,-0.1,-0.1,-135.09541704418348,35.16897263857141,-0.35995874490000124,24.9,0xFFFF
181,3.6200554029999807,adis16470,-0.0122583125,-0.0122583125,-0.0122583125,5.636264088878016,5.646823705794698,5.665714002846768,-0.0017453292519943296,-0.0017453292519943296,-0.0017453292519943296,-0.1,-0.1,-0.1,-135.0954686518498,35.16892103090506,-0.3619586924000032,24.9,0xFFFF
182,3.6400550260000273,adis16470,-0.0122583125,-0.0122583125,-0.0122583125,5.636257009576461,5.646822212903668,5.665722533343387,-0.0017453292519943296,-0.0017453292519943296,-0.0017453292519943296,-0.1,-0.1,-0.1,-135.0955192491188,35.16887043363605,-0.36395866210000355,24.9,0xFFFF
183,3.6600594270000215,adis16470,-0.0122583125,-0.0122583125,-0.0122583125,5.636250008371712,5.646820736467873,5.6657309697262255,-0.0017453292519943296,-0.0017453292519943296,-0.0017453292519943296,-0.1,-0.1,-0.1,-135.09556928818245,35.16882039457242,-0.36595909480000166,24.9,0xFFFF
184,3.6800573470000018,adis16470,-0.0122583125,-0.0122583125,-0.0122583125,5.636243230978838,5.6468193072170525,5.6657391364105525,-0.0017453292519943296,-0.0017453292519943296,-0.0017453292519943296,-0.1,-0.1,-0.1,-135.0956177275868,35.16877195516806,-0.3679589163999993,24.9,0xFFFF
185,3.700058155000022,adis16470,-0.0122583125,-0.0122583125,-0.0122583125,5.636236554603921,5.646817899256739,5.665747181362226,-0.0017453292519943296,-0.0017453292519943296,-0.0017453292519943296,-0.1,-0.1,-0.1,-135.0956654449671,35.16872423778779,-0.3699589897999999,24.9,0xFFFF
186,3.7200554080000074,adis16470,-0.0122583125,-0.0122583125,-0.0122583125,5.636230062280233,5.646816530098368,5.665755004527604,-0.0017453292519943296,-0.0017453292519943296,-0.0017453292519943296,-0.1,-0.1,-0.1,-135.09571184686976,35.16867783588513,-0.3719586947000039,24.9,0xFFFF
187,3.7400554750000197,adis16470,-0.0122583125,-0.0122583125,-0.0122583125,5.63622365891118,5.646815179687886,5.665762720497259,-0.0017453292519943296,-0.0017453292519943296,-0.0017453292519943296,-0.1,-0.1,-0.1,-135.09575761297037,35.16863206978451,-0.3739586978000034,24.9,0xFFFF
188,3.7600594130000218,adis16470,-0.0122583125,-0.0122583125,-0.0122583125,5.636217330048142,5.6468138449786585,5.665770346681827,-0.0017453292519943296,-0.0017453292519943296,-0.0017453292519943296,-0.1,-0.1,-0.1,-135.09580284653697,35.16858683621791,-0.37595909149999895,24.9,0xFFFF
189,3.780055907000019,adis16470,-0.0122583125,-0.0122583125,-0.0122583125,5.636211229815131,5.646812558475077,5.665777697364649,-0.0017453292519943296,-0.0017453292519943296,-0.0017453292519943296,-0.1,-0.1,-0.1,-135.09584644601824,35.16854323673665,-0.3779587408999987,24.9,0xFFFF
190,3.80005515900001,adis16470,-0.0122583125,-0.0122583125,-0.0122583125,5.636205214013529,5.646811289767306,5.665784946303202,-0.0017453292519943296,-0.0017453292519943296,-0.0017453292519943296,-0.1,-0.1,-0.1,-135.0958894420299,35.16850024072501,-0.37995866429999975,24.9,0xFFFF
191,3.8200562449999893,adis16470,-0.0122583125,-0.0122583125,-0.0122583125,5.636199293130777,5.64681004106756,5.665792080860554,-0.0017453292519943296,-0.0017453292519943296,-0.0017453292519943296,-0.1,-0.1,-0.1,-135.09593175961734,35.1684579231376,-0.38195877290000335,24.9,0xFFFF
192,3.840055108999991,adis16470,-0.0122583125,-0.0122583125,-0.0122583125,5.636193521376948,5.646808823809222,5.665799035714885,-0.0017453292519943296,-0.0017453292519943296,-0.0017453292519943296,-0.1,-0.1,-0.1,-135.095973011333,35.168416671421944,-0.38395865749999986,24.9,0xFFFF
193,3.860059232000026,adis16470,-0.0122583125,-0.0122583125,-0.0122583125,5.636187792698565,5.646807615626173,5.6658059386588935,-0.0017453292519943296,-0.0017453292519943296,-0.0017453292519943296,-0.1,-0.1,-0.1,-135.09601395516034,35.16837572759459,-0.3859590698000034,24.9,0xFFFF
194,3.880055077999998,adis16470,-0.0122583125,-0.0122583125,-0.0122583125,5.636182292357215,5.64680645559088,5.665812566456405,-0.0017453292519943296,-0.0017453292519943296,-0.0017453292519943296,-0.1,-0.1,-0.1,-135.09605326700515,35.168336415749785,-0.387958652399999,24.9,0xFFFF
195,3.9000558490000117,adis16470,-0.0122583125,-0.0122583125,-0.0122583125,5.636176834201838,5.646805304444279,5.665819143415946,-0.0017453292519943296,-0.0017453292519943296,-0.0017453292519943296,-0.1,-0.1,-0.1,-135.09609227732105,35.168297405433876,-0.3899587295999993,24.9,0xFFFF
196,3.9200551389999987,adis16470,-0.0122583125,-0.0122583125,-0.0122583125,5.6361715055415536,5.646804180600597,5.665825564332139,-0.0017453292519943296,-0.0017453292519943296,-0.0017453292519943296,-0.1,-0.1,-0.1,-135.09613036209663,35.168259320658294,-0.39195865849999906,24.9,0xFFFF
197,3.940055835999999,adis16470,-0.0122583125,-0.0122583125,-0.0122583125,5.636166263885377,5.6468030750987435,5.665831880405942,-0.0017453292519943296,-0.0017453292519943296,-0.0017453292519943296,-0.1,-0.1,-0.1,-135.09616782502272,35.16822185773221,-0.3939587301000017,24.9,0xFFFF
198,3.960056903000009,adis16470,-0.0122583125,-0.0122583125,-0.0122583125,5.636161122233444,5.646801990680954,5.665838075972724,-0.0017453292519943296,-0.0017453292519943296,-0.0017453292519943296,-0.1,-0.1,-0.1,-135.09620457318624,35.16818510956866,-0.39595883690000166,24.9,0xFFFF
199,3.980059175000008,adis16470,-0.0122583125,-0.0122583125,-0.0122583125,5.636156060568492,5.6468009231258085,5.665844175153027,-0.0017453292519943296,-0.0017453292519943296,-0.0017453292519943296,-0.1,-0.1,-0.1,-135.09624074965453,35.168148933100376,-0.39795911030000186,24.9,0xFFFF
200,4.000055889999999,adis16470,-0.0122583125,-0.0122583125,-0.0122583125,5.636151186463972,5.6467998951221805,5.665850048323839,-0.0017453292519943296,-0.0017453292519943296,-0.0017453292519943296,-0.1,-0.1,-0.1,-135.09627558558546,35.16811409716946,-0.399958754100004,24.9,0xFFFF
201,4.020057049999991,adis16470,-0.0122583125,-0.0122583125,-0.0122583125,5.636146340773292,5.646798873104709,5.66585588725297,-0.0017453292519943296,-0.0017453292519943296,-0.0017453292519943296,-0.1,-0.1,-0.1,-135.09631021842375,35.168079464331164,-0.40195890159999975,24.9,0xFFFF
202,4.040057209999986,adis16470,-0.0122583125,-0.0122583125,-0.0122583125,5.636141611300615,5.646797875592699,5.665861586138892,-0.0017453292519943296,-0.0017453292519943296,-0.0017453292519943296,-0.1,-0.1,-0.1,-135.09634402062127,35.16804566213363,-0.40395890830000103,24.9,0xFFFF
203,4.060059130000013,adis16470,-0.0122583125,-0.0122583125,-0.0122583125,5.636136951007537,5.64679689266546,5.665867201661809,-0.0017453292519943296,-0.0017453292519943296,-0.0017453292519943296,-0.1,-0.1,-0.1,-135.09637732836887,35.16801235438604,-0.40595910030000376,24.9,0xFFFF
204,4.0800563270000225,adis16470,-0.0122583125,-0.0122583125,-0.0122583125,5.63613244741779,5.6467959427835375,5.665872628358319,-0.0017453292519943296,-0.0017453292519943296,-0.0017453292519943296,-0.1,-0.1,-0.1,-135.09640951612352,35.167980166631416,-0.40795882920000404,24.9,0xFFFF
205,4.100056913000003,adis16470,-0.0122583125,-0.0122583125,-0.0122583125,5.636127993763672,5.646795003428242,5.665877994880669,-0.0017453292519943296,-0.0017453292519943296,-0.0017453292519943296,-0.1,-0.1,-0.1,-135.09644134696904,35.16794833578588,-0.40995885080000116,24.9,0xFFFF
206,4.1200576100000035,adis16470,-0.0122583125,-0.0122583125,-0.0122583125,5.636123618513159,5.646794080604222,5.665883266925914,-0.0017453292519943296,-0.0017453292519943296,-0.0017453292519943296,-0.1,-0.1,-0.1,-135.09647261744166,35.167917065313254,-0.4119589501999998,24.9,0xFFFF
207,4.140058085000021,adis16470,-0.0122583125,-0.0122583125,-0.0122583125,5.636119337882453,5.6467931777321025,5.665888424954201,-0.0017453292519943296,-0.0017453292519943296,-0.0017453292519943296,-0.1,-0.1,-0.1,-135.0965032116428,35.16788647111208,-0.4139589977000015,24.9,0xFFFF
208,4.160059616000012,adis16470,-0.0122583125,-0.0122583125,-0.0122583125,5.636115124845474,5.64679228911183,5.665893501531292,-0.0017453292519943296,-0.0017453292519943296,-0.0017453292519943296,-0.1,-0.1,-0.1,-135.09653332273194,35.167856360022924,-0.4159591766000006,24.9,0xFFFF
209,4.18005877600001,adis16470,-0.0122583125,-0.0122583125,-0.0122583125,5.6361110366821325,5.646791426825309,5.665898427636885,-0.0017453292519943296,-0.0017453292519943296,-0.0017453292519943296,-0.1,-0.1,-0.1,-135.09656254132332,35.16782714143155,-0.4179590593000001,24.9,0xFFFF
210,4.2000566770000205,adis16470,-0.0122583125,-0.0122583125,-0.0122583125,5.636107045267658,5.646790584940773,5.665903237160647,-0.0017453292519943296,-0.0017453292519943296,-0.0017453292519943296,-0.1,-0.1,-0.1,-135.09659106842886,35.16779861432601,-0.41995883270000156,24.9,0xFFFF
211,4.220055263000006,adis16470,-0.0122583125,-0.0122583125,-0.0122583125,5.636103122751787,5.6467897575842185,5.665907963661383,-0.0017453292519943296,-0.0017453292519943296,-0.0017453292519943296,-0.1,-0.1,-0.1,-135.0966191030983,35.16777057965658,-0.42195868580000145,24.9,0xFFFF
212,4.240055181999992,adis16470,-0.0122583125,-0.0122583125,-0.0122583125,5.636099260407044,5.646788942915018,5.665912617655534,-0.0017453292519943296,-0.0017453292519943296,-0.0017453292519943296,-0.1,-0.1,-0.1,-135.09664670770835,35.16774297504654,-0.4239586722000014,24.9,0xFFFF
213,4.260061989999997,adis16470,-0.0122583125,-0.0122583125,-0.0122583125,5.636095375266346,5.646788123433311,5.665917299115653,-0.0017453292519943296,-0.0017453292519943296,-0.0017453292519943296,-0.1,-0.1,-0.1,-135.09667447523418,35.1677152075207,-0.42595938819999907,24.9,0xFFFF
214,4.280056262000016,adis16470,-0.0122583125,-0.0122583125,-0.0122583125,5.636091744559129,5.646787357614685,5.665921673990067,-0.0017453292519943296,-0.0017453292519943296,-0.0017453292519943296,-0.1,-0.1,-0.1,-135.09670042428752,35.16768925846738,-0.42795881530000207,24.9,0xFFFF
215,4.300057792000018,adis16470,-0.0122583125,-0.0122583125,-0.0122583125,5.636088087437967,5.646786586220856,5.665926080690242,-0.0017453292519943296,-0.0017453292519943296,-0.0017453292519943296,-0.1,-0.1,-0.1,-135.09672656211578,35.16766312063912,-0.4299589646000016,24.9,0xFFFF
216,4.320055693000029,adis16470,-0.0122583125,-0.0122583125,-0.0122583125,5.636084552203721,5.6467858405329565,5.665930340519028,-0.0017453292519943296,-0.0017453292519943296,-0.0017453292519943296,-0.1,-0.1,-0.1,-135.09675182879747,35.16763785395743,-0.43195875840000336,24.9,0xFFFF
217,4.340055816000017,adis16470,-0.0122583125,-0.0122583125,-0.0122583125,5.636081055930148,5.646785103059572,5.665934553399673,-0.0017453292519943296,-0.0017453292519943296,-0.0017453292519943296,-0.1,-0.1,-0.1,-135.09677681701552,35.16761286573937,-0.4339587837000011,24.9,0xFFFF
218,4.360062884000001,adis16470,-0.0122583125,-0.0122583125,-0.0122583125,5.636077537917214,5.6467843609972,5.6659387924734865,-0.0017453292519943296,-0.0017453292519943296,-0.0017453292519943296,-0.1,-0.1,-0.1,-135.09680196059924,35.16758772215568,-0.4359594775000006,24.9,0xFFFF
219,4.380056118000027,adis16470,-0.0122583125,-0.0122583125,-0.0122583125,5.63607428147544,5.646783674105508,5.665942716362103,-0.0017453292519943296,-0.0017453292519943296,-0.0017453292519943296,-0.1,-0.1,-0.1,-135.09682523470124,35.16756444805365,-0.4379587768000022,24.9,0xFFFF
220,4.400056111000026,adis16470,-0.0122583125,-0.0122583125,-0.0122583125,5.636070995686821,5.64678298102056,5.665946675610847,-0.0017453292519943296,-0.0017453292519943296,-0.0017453292519943296,-0.1,-0.1,-0.1,-135.09684871854125,35.16754096421367,-0.4399587650999991,24.9,0xFFFF
221,4.420055401000013,adis16470,-0.0122583125,-0.0122583125,-0.0122583125,5.636067784251534,5.646782303616325,5.665950545265039,-0.0017453292519943296,-0.0017453292519943296,-0.0017453292519943296,-0.1,-0.1,-0.1,-135.09687167096445,35.167518011790484,-0.4419586904000028,24.9,0xFFFF
222,4.440055357999995,adis16470,-0.0122583125,-0.0122583125,-0.0122583125,5.636064627404624,5.646781637723855,5.66595434914077,-0.0017453292519943296,-0.0017453292519943296,-0.0017453292519943296,-0.1,-0.1,-0.1,-135.09689423323314,35.167495449521766,-0.44395868600000205,24.9,0xFFFF
223,4.460060110000029,adis16470,-0.0122583125,-0.0122583125,-0.0122583125,5.636061463351857,5.6467809703085905,5.66595816169769,-0.0017453292519943296,-0.0017453292519943296,-0.0017453292519943296,-0.1,-0.1,-0.1,-135.09691684699652,35.16747283575843,-0.44595919459999894,24.9,0xFFFF
224,4.48005632600001,adis16470,-0.0122583125,-0.0122583125,-0.0122583125,5.636058487247742,5.64678034253604,5.665961747782562,-0.0017453292519943296,-0.0017453292519943296,-0.0017453292519943296,-0.1,-0.1,-0.1,-135.0969381174686,35.167451565286356,-0.44795879399999877,24.9,0xFFFF
225,4.500061727000002,adis16470,-0.0122583125,-0.0122583125,-0.0122583125,5.63605542542864,5.646779696680364,5.66596543714905,-0.0017453292519943296,-0.0017453292519943296,-0.0017453292519943296,-0.1,-0.1,-0.1,-135.09696000054723,35.16742968220771,-0.449959452600001,24.9,0xFFFF
226,4.5200566460000005,adis16470,-0.0122583125,-0.0122583125,-0.0122583125,5.636052600316191,5.646779100752897,5.665968841292411,-0.0017453292519943296,-0.0017453292519943296,-0.0017453292519943296,-0.1,-0.1,-0.1,-135.0969801918583,35.16740949089665,-0.45195883150000216,24.9,0xFFFF
227,4.540055881000001,adis16470,-0.0122583125,-0.0122583125,-0.0122583125,5.636049752464272,5.646778500026504,5.665972272834607,-0.0017453292519943296,-0.0017453292519943296,-0.0017453292519943296,-0.1,-0.1,-0.1,-135.09700054568515,35.16738913706981,-0.45395878830000247,24.9,0xFFFF
228,4.5600630220000085,adis16470,-0.0122583125,-0.0122583125,-0.0122583125,5.63604685823584,5.6467778895150955,5.665975760257244,-0.0017453292519943296,-0.0017453292519943296,-0.0017453292519943296,-0.1,-0.1,-0.1,-135.09702123096346,35.1673684517915,-0.45595949870000263,24.9,0xFFFF
229,4.580057016000012,adis16470,-0.0122583125,-0.0122583125,-0.0122583125,5.6360441955662015,5.646777327846842,5.665978968660171,-0.0017453292519943296,-0.0017453292519943296,-0.0017453292519943296,-0.1,-0.1,-0.1,-135.09704026126818,35.16734942148676,-0.4579589424999995,24.9,0xFFFF
230,4.600055472000008,adis16470,-0.0122583125,-0.0122583125,-0.0122583125,5.636041543491617,5.646776768411538,5.665982164295395,-0.0017453292519943296,-0.0017453292519943296,-0.0017453292519943296,-0.1,-0.1,-0.1,-135.09705921584484,35.167330466910116,-0.4599586974000034,24.9,0xFFFF
231,4.620055483999977,adis16470,-0.0122583125,-0.0122583125,-0.0122583125,5.636038910424971,5.646776212983858,5.665985337025771,-0.0017453292519943296,-0.0017453292519943296,-0.0017453292519943296,-0.1,-0.1,-0.1,-135.09707803456595,35.167311648189006,-0.46195870050000293,24.9,0xFFFF
232,4.6400564400000235,adis16470,-0.0122583125,-0.0122583125,-0.0122583125,5.636036314785135,5.646775665449193,5.6659884646574,-0.0017453292519943296,-0.0017453292519943296,-0.0017453292519943296,-0.1,-0.1,-0.1,-135.09709658579067,35.16729309696433,-0.4639588146999985,24.9,0xFFFF
233,4.660055638000017,adis16470,-0.0122583125,-0.0122583125,-0.0122583125,5.6360337916391,5.6467751332048435,5.665991504936166,-0.0017453292519943296,-0.0017453292519943296,-0.0017453292519943296,-0.1,-0.1,-0.1,-135.09711461889285,35.16727506386212,-0.46595877880000114,24.9,0xFFFF
234,4.680055872000025,adis16470,-0.0122583125,-0.0122583125,-0.0122583125,5.636031314115139,5.646774610582481,5.6659944902413795,-0.0017453292519943296,-0.0017453292519943296,-0.0017453292519943296,-0.1,-0.1,-0.1,-135.097132325927,35.167257356827974,-0.4679587782,24.9,0xFFFF
235,4.700056142999983,adis16470,-0.0122583125,-0.0122583125,-0.0122583125,5.6360288828502725,5.646774097716579,5.665997419805516,-0.0017453292519943296,-0.0017453292519943296,-0.0017453292519943296,-0.1,-0.1,-0.1,-135.09714970234046,35.1672399804145,-0.4699588016000008,24.9,0xFFFF
236,4.720056413999998,adis16470,-0.0122583125,-0.0122583125,-0.0122583125,5.6360265002102,5.646773595106272,5.6660002907780695,-0.0017453292519943296,-0.0017453292519943296,-0.0017453292519943296,-0.1,-0.1,-0.1,-135.09716673122566,35.1672229515293,-0.47195882500000164,24.9,0xFFFF
237,4.740056740999989,adis16470,-0.0122583125,-0.0122583125,-0.0122583125,5.636024165222444,5.646773102546516,5.666003104330878,-0.0017453292519943296,-0.0017453292519943296,-0.0017453292519943296,-0.1,-0.1,-0.1,-135.09718341953314,35.16720626322181,-0.4739588484000024,24.9,0xFFFF
238,4.760057253000014,adis16470,-0.0122583125,-0.0122583125,-0.0122583125,5.6360218703248295,5.646772618442174,5.666005869576072,-0.0017453292519943296,-0.0017453292519943296,-0.0017453292519943296,-0.1,-0.1,-0.1,-135.0971998213105,35.16718986144446,-0.47595891999999945,24.9,0xFFFF
239,4.780056580000007,adis16470,-0.0122583125,-0.0122583125,-0.0122583125,5.636019644182506,5.6467721488402125,5.66600855197353,-0.0017453292519943296,-0.0017453292519943296,-0.0017453292519943296,-0.1,-0.1,-0.1,-135.0972157316863,35.167173951068655,-0.47795882490000285,24.9,0xFFFF
240,4.800055424999982,adis16470,-0.0122583125,-0.0122583125,-0.0122583125,5.6360174671286805,5.646771689592057,5.666011175220883,-0.0017453292519943296,-0.0017453292519943296,-0.0017453292519943296,-0.1,-0.1,-0.1,-135.09723129122057,35.16715839153438,-0.4799586965000004,24.9,0xFFFF
241,4.820055178000018,adis16470,-0.0122583125,-0.0122583125,-0.0122583125,5.636015318888908,5.6467712364209,5.6660137637479195,-0.0017453292519943296,-0.0017453292519943296,-0.0017453292519943296,-0.1,-0.1,-0.1,-135.09724664481615,35.16714303793878,-0.48195867549999893,24.9,0xFFFF
242,4.840058430999989,adis16470,-0.0122583125,-0.0122583125,-0.0122583125,5.636013161823547,5.6467707813866745,5.666016362908637,-0.0017453292519943296,-0.0017453292519943296,-0.0017453292519943296,-0.1,-0.1,-0.1,-135.09726206148582,35.167127621269096,-0.48395903219999925,24.9,0xFFFF
243,4.860057109000024,adis16470,-0.0122583125,-0.0122583125,-0.0122583125,5.63601111467625,5.646770349538513,5.666018829622659,-0.0017453292519943296,-0.0017453292519943296,-0.0017453292519943296,-0.1,-0.1,-0.1,-135.09727669256213,35.167112990192805,-0.48595890189999985,24.9,0xFFFF
244,4.880058824999992,adis16470,-0.0122583125,-0.0122583125,-0.0122583125,5.6360090670751815,5.6467699175934465,5.6660212968827866,-0.0017453292519943296,-0.0017453292519943296,-0.0017453292519943296,-0.1,-0.1,-0.1,-135.09729132687892,35.167098355876035,-0.4879590735000023,24.9,0xFFFF
245,4.900056541000026,adis16470,-0.0122583125,-0.0122583125,-0.0122583125,5.6360071201001665,5.646769506874527,5.666023642892776,-0.0017453292519943296,-0.0017453292519943296,-0.0017453292519943296,-0.1,-0.1,-0.1,-135.09730524201333,35.16708444074161,-0.4899588099000028,24.9,0xFFFF
246,4.920059311999978,adis16470,-0.0122583125,-0.0122583125,-0.0122583125,5.6360051330972185,5.64676908771052,5.6660260371338556,-0.0017453292519943296,-0.0017453292519943296,-0.0017453292519943296,-0.1,-0.1,-0.1,-135.0973194432271,35.16707023952787,-0.4919591222000009,24.9,0xFFFF
247,4.940056195000011,adis16470,-0.0122583125,-0.0122583125,-0.0122583125,5.636003270902935,5.6467686948742495,5.66602828098605,-0.0017453292519943296,-0.0017453292519943296,-0.0017453292519943296,-0.1,-0.1,-0.1,-135.09733275242456,35.167056930330396,-0.4939588141000002,24.9,0xFFFF
248,4.96005728099999,adis16470,-0.0122583125,-0.0122583125,-0.0122583125,5.636001389061349,5.646768297892323,5.666030548511712,-0.0017453292519943296,-0.0017453292519943296,-0.0017453292519943296,-0.1,-0.1,-0.1,-135.09734620204006,35.16704348071488,-0.49595892090000016,24.9,0xFFFF
249,4.980058052000004,adis16470,-0.0122583125,-0.0122583125,-0.0122583125,5.6359995474067155,5.646767909387022,5.666032767613547,-0.0017453292519943296,-0.0017453292519943296,-0.0017453292519943296,-0.1,-0.1,-0.1,-135.09735936443528,35.16703031831967,-0.4979590091000035,24.9,0xFFFF
250,5.000057916000003,adis16470,-0.0122583125,-0.0122583125,-0.0122583125,5.635997757297818,5.646767531754609,5.666034924604836,-0.0017453292519943296,-0.0017453292519943296,-0.0017453292519943296,-0.1,-0.1,-0.1,-135.09737215842858,35.16701752432637,-0.49995898999999905,24.9,0xFFFF
251,5.020057020000024,adis16470,-0.0122583125,-0.0122583125,-0.0122583125,5.635996016209151,5.646767164462391,5.666037022528719,-0.0017453292519943296,-0.0017453292519943296,-0.0017453292519943296,-0.1,-0.1,-0.1,-135.09738460207004,35.16700508068493,-0.5019588745000022,24.9,0xFFFF
252,5.040055920999976,adis16470,-0.0122583125,-0.0122583125,-0.0122583125,5.635994310188816,5.646766804567201,5.666039078196568,-0.0017453292519943296,-0.0017453292519943296,-0.0017453292519943296,-0.1,-0.1,-0.1,-135.09739679507462,35.16699288768032,-0.5039587572000017,24.9,0xFFFF
253,5.060056952000025,adis16470,-0.0122583125,-0.0122583125,-0.0122583125,5.6359926047766,5.646766444799479,5.6660411331312,-0.0017453292519943296,-0.0017453292519943296,-0.0017453292519943296,-0.1,-0.1,-0.1,-135.09740898373113,35.1669806990238,-0.505958884300003,24.9,0xFFFF
254,5.080056592999995,adis16470,-0.0122583125,-0.0122583125,-0.0122583125,5.635990958606414,5.646766097528466,5.666043116681778,-0.0017453292519943296,-0.0017453292519943296,-0.0017453292519943296,-0.1,-0.1,-0.1,-135.0974207489805,35.16696893377442,-0.5079588280999987,24.9,0xFFFF
255,5.100058531000002,adis16470,-0.0122583125,-0.0122583125,-0.0122583125,5.635989307267556,5.646765749166317,5.666045106459909,-0.0017453292519943296,-0.0017453292519943296,-0.0017453292519943296,-0.1,-0.1,-0.1,-135.09743255116894,35.16695713158602,-0.509959049700001,24.9,0xFFFF
256,5.120056857999998,adis16470,-0.0122583125,-0.0122583125,-0.0122583125,5.635987745585674,5.646765419717265,5.666046988205609,-0.0017453292519943296,-0.0017453292519943296,-0.0017453292519943296,-0.1,-0.1,-0.1,-135.09744371257355,35.166945970181395,-0.5119588582999998,24.9,0xFFFF
257,5.140060944000027,adis16470,-0.0122583125,-0.0122583125,-0.0122583125,5.635986130836025,5.646765079072428,5.66604893389481,-0.0017453292519943296,-0.0017453292519943296,-0.0017453292519943296,-0.1,-0.1,-0.1,-135.09745525325405,35.16693442950086,-0.5139592816999995,24.9,0xFFFF
258,5.160058975000027,adis16470,-0.0122583125,-0.0122583125,-0.0122583125,5.635984632942883,5.646764763078779,5.666050738777641,-0.0017453292519943296,-0.0017453292519943296,-0.0017453292519943296,-0.1,-0.1,-0.1,-135.097465958755,35.16692372399993,-0.5159590884000013,24.9,0xFFFF
259,5.18005591299999,adis16470,-0.0122583125,-0.0122583125,-0.0122583125,5.63598318353229,5.646764457312349,5.666052485241195,-0.0017453292519943296,-0.0017453292519943296,-0.0017453292519943296,-0.1,-0.1,-0.1,-135.0974763177479,35.16691336500703,-0.5179587599999992,24.9,0xFFFF
260,5.200055609999993,adis16470,-0.0122583125,-0.0122583125,-0.0122583125,5.6359817234958305,5.646764149303697,5.666054244508026,-0.0017453292519943296,-0.0017453292519943296,-0.0017453292519943296,-0.1,-0.1,-0.1,-135.09748675268293,35.166902930071984,-0.5199587205000001,24.9,0xFFFF
261,5.220058585000004,adis16470,-0.0122583125,-0.0122583125,-0.0122583125,5.635980242652334,5.6467638369049835,5.666056028845894,-0.0017453292519943296,-0.0017453292519943296,-0.0017453292519943296,-0.1,-0.1,-0.1,-135.0974973363253,35.16689234642963,-0.521959045700004,24.9,0xFFFF
262,5.2400563190000184,adis16470,-0.0122583125,-0.0122583125,-0.0122583125,5.635978870132286,5.646763547357632,5.666057682659441,-0.0017453292519943296,-0.0017453292519943296,-0.0017453292519943296,-0.1,-0.1,-0.1,-135.09750714577478,35.166882536980125,-0.5239587969000014,24.9,0xFFFF
263,5.260057609,adis16470,-0.0122583125,-0.0122583125,-0.0122583125,5.635977469693495,5.646763251919983,5.666059370113279,-0.0017453292519943296,-0.0017453292519943296,-0.0017453292519943296,-0.1,-0.1,-0.1,-135.0975171547593,35.166872527995615,-0.5259589519000031,24.9,0xFFFF
264,5.280058527999984,adis16470,-0.0122583125,-0.0122583125,-0.0122583125,5.635976110481666,5.646762965179077,5.666061007890535,-0.0017453292519943296,-0.0017453292519943296,-0.0017453292519943296,-0.1,-0.1,-0.1,-135.09752686909212,35.16686281366279,-0.5279590105000013,24.9,0xFFFF
265,5.300057614000025,adis16470,-0.0122583125,-0.0122583125,-0.0122583125,5.6359747954704895,5.646762687762294,5.6660625924081005,-0.0017453292519943296,-0.0017453292519943296,-0.0017453292519943296,-0.1,-0.1,-0.1,-135.0975362675203,35.166853415234634,-0.5299589449999986,24.9,0xFFFF
266,5.320057384999984,adis16470,-0.0122583125,-0.0122583125,-0.0122583125,5.635973500918082,5.646762414661049,5.666064152273685,-0.0017453292519943296,-0.0017453292519943296,-0.0017453292519943296,-0.1,-0.1,-0.1,-135.0975455197279,35.16684416302703,-0.5319589221000002,24.9,0xFFFF
267,5.3400577859999885,adis16470,-0.0122583125,-0.0122583125,-0.0122583125,5.6359722233574985,5.646762145143969,5.66606569166478,-0.0017453292519943296,-0.0017453292519943296,-0.0017453292519943296,-0.1,-0.1,-0.1,-135.09755465049338,35.16683503226158,-0.5339589641000032,24.9,0xFFFF
268,5.360064909000016,adis16470,-0.0122583125,-0.0122583125,-0.0122583125,5.635970858868542,5.646761857287776,5.666067335799556,-0.0017453292519943296,-0.0017453292519943296,-0.0017453292519943296,-0.1,-0.1,-0.1,-135.0975644025375,35.166825280217445,-0.5359598264,24.9,0xFFFF
269,5.380059883999991,adis16470,-0.0122583125,-0.0122583125,-0.0122583125,5.6359697311609995,5.646761619383217,5.666068694625416,-0.0017453292519943296,-0.0017453292519943296,-0.0017453292519943296,-0.1,-0.1,-0.1,-135.09757246229674,35.166817220458185,-0.5379591608999988,24.9,0xFFFF
270,5.400057581999988,adis16470,-0.0122583125,-0.0122583125,-0.0122583125,5.635968565057696,5.646761373378198,5.666070099715857,-0.0017453292519943296,-0.0017453292519943296,-0.0017453292519943296,-0.1,-0.1,-0.1,-135.0975807964708,35.16680888628411,-0.5399589399000035,24.9,0xFFFF
271,5.4200577230000135,adis16470,-0.0122583125,-0.0122583125,-0.0122583125,5.635967391300949,5.646761125758192,5.666071514028061,-0.0017453292519943296,-0.0017453292519943296,-0.0017453292519943296,-0.1,-0.1,-0.1,-135.09758918534342,35.16680049741152,-0.5419589448000011,24.9,0xFFFF
272,5.440056217000006,adis16470,-0.0122583125,-0.0122583125,-0.0122583125,5.635966263616587,5.646760887857421,5.666072872825372,-0.0017453292519943296,-0.0017453292519943296,-0.0017453292519943296,-0.1,-0.1,-0.1,-135.09759724493455,35.166792437820384,-0.543958784900002,24.9,0xFFFF
273,5.460057468999992,adis16470,-0.0122583125,-0.0122583125,-0.0122583125,5.635965119132374,5.64676064641212,5.666074251865369,-0.0017453292519943296,-0.0017453292519943296,-0.0017453292519943296,-0.1,-0.1,-0.1,-135.09760542459387,35.16678425816106,-0.5459589120000032,24.9,0xFFFF
274,5.480064147999997,adis16470,-0.0122583125,-0.0122583125,-0.0122583125,5.635963923136433,5.646760394099289,5.6660756929739176,-0.0017453292519943296,-0.0017453292519943296,-0.0017453292519943296,-0.1,-0.1,-0.1,-135.097613972408,35.166775710346926,-0.5479595817000017,24.9,0xFFFF
275,5.5000639379999825,adis16470,-0.0122583125,-0.0122583125,-0.0122583125,5.635962826723102,5.646760162794509,5.666077014090767,-0.0017453292519943296,-0.0017453292519943296,-0.0017453292519943296,-0.1,-0.1,-0.1,-135.09762180850186,35.166767874253075,-0.5499596996000037,24.9,0xFFFF
276,5.520057856999983,adis16470,-0.0122583125,-0.0122583125,-0.0122583125,5.63596186523853,5.64675995995469,5.666078172625838,-0.0017453292519943296,-0.0017453292519943296,-0.0017453292519943296,-0.1,-0.1,-0.1,-135.0976286802558,35.16676100249911,-0.551958993400001,24.9,0xFFFF
277,5.540058516999977,adis16470,-0.0122583125,-0.0122583125,-0.0122583125,5.63596081659215,5.646759738726463,5.666079436185836,-0.0017453292519943296,-0.0017453292519943296,-0.0017453292519943296,-0.1,-0.1,-0.1,-135.0976361749567,35.16675350779822,-0.5539590631000011,24.9,0xFFFF
278,5.560055214999977,adis16470,-0.0122583125,-0.0122583125,-0.0122583125,5.635959848085897,5.646759534404763,5.66608060318133,-0.0017453292519943296,-0.0017453292519943296,-0.0017453292519943296,-0.1,-0.1,-0.1,-135.09764309689356,35.16674658586135,-0.5559587012999999,24.9,0xFFFF
279,5.580063559999985,adis16470,-0.0122583125,-0.0122583125,-0.0122583125,5.635958737696523,5.646759300150251,5.666081941137811,-0.0017453292519943296,-0.0017453292519943296,-0.0017453292519943296,-0.1,-0.1,-0.1,-135.0976510328717,35.16673864988322,-0.5579595154999993,24.9,0xFFFF
280,5.60005584999999,adis16470,-0.0122583125,-0.0122583125,-0.0122583125,5.635957866877537,5.646759116436725,5.66608299042537,-0.0017453292519943296,-0.0017453292519943296,-0.0017453292519943296,-0.1,-0.1,-0.1,-135.09765725663428,35.166732426120646,-0.5599587444999998,24.9,0xFFFF
281,5.620055899000022,adis16470,-0.0122583125,-0.0122583125,-0.0122583125,5.635956908358628,5.646758914221217,5.666084145386227,-0.0017453292519943296,-0.0017453292519943296,-0.0017453292519943296,-0.1,-0.1,-0.1,-135.0976641071896,35.16672557556533,-0.561958740099999,24.9,0xFFFF
282,5.640055410999992,adis16470,-0.0122583125,-0.0122583125,-0.0122583125,5.635955975344964,5.6467587173862155,5.666085269614575,-0.0017453292519943296,-0.0017453292519943296,-0.0017453292519943296,-0.1,-0.1,-0.1,-135.09767077545783,35.16671890729711,-0.5639586895000037,24.9,0xFFFF
283,5.660055293000028,adis16470,-0.0122583125,-0.0122583125,-0.0122583125,5.635955056178585,5.6467585234722915,5.6660863771575976,-0.0017453292519943296,-0.0017453292519943296,-0.0017453292519943296,-0.1,-0.1,-0.1,-135.0976773447587,35.166712337996266,-0.565958674000001,24.9,0xFFFF
284,5.680057490000024,adis16470,-0.0122583125,-0.0122583125,-0.0122583125,5.635954123144815,5.646758326632564,5.666087501409895,-0.0017453292519943296,-0.0017453292519943296,-0.0017453292519943296,-0.1,-0.1,-0.1,-135.0976840131695,35.166705669585426,-0.5679588937000007,24.9,0xFFFF
285,5.700055188000022,adis16470,-0.0122583125,-0.0122583125,-0.0122583125,5.63595327072251,5.646758146799011,5.666088528529873,-0.0017453292519943296,-0.0017453292519943296,-0.0017453292519943296,-0.1,-0.1,-0.1,-135.09769010544812,35.16669957730681,-0.5699586616000035,24.9,0xFFFF
286,5.720055811000009,adis16470,-0.0122583125,-0.0122583125,-0.0122583125,5.635952393965739,5.646757961831461,5.666089584971363,-0.0017453292519943296,-0.0017453292519943296,-0.0017453292519943296,-0.1,-0.1,-0.1,-135.09769637164516,35.16669331110976,-0.5719587313000036,24.9,0xFFFF
287,5.740055304000009,adis16470,-0.0122583125,-0.0122583125,-0.0122583125,5.635951551500117,5.646757784098038,5.666090600093877,-0.0017453292519943296,-0.0017453292519943296,-0.0017453292519943296,-0.1,-0.1,-0.1,-135.09770239276227,35.166687289992666,-0.5739586787999998,24.9,0xFFFF
288,5.7600552979999975,adis16470,-0.0122583125,-0.0122583125,-0.0122583125,5.63595071902774,5.646757608472674,5.666091603174998,-0.0017453292519943296,-0.0017453292519943296,-0.0017453292519943296,-0.1,-0.1,-0.1,-135.09770834245703,35.16668134029789,-0.5759586763000017,24.9,0xFFFF
289,5.780059290999986,adis16470,-0.0122583125,-0.0122583125,-0.0122583125,5.635949847849347,5.646757424681355,5.666092652894513,-0.0017453292519943296,-0.0017453292519943296,-0.0017453292519943296,-0.1,-0.1,-0.1,-135.09771456878389,35.166675113971024,-0.5779590775000033,24.9,0xFFFF
290,5.800056229000006,adis16470,-0.0122583125,-0.0122583125,-0.0122583125,5.635949090325384,5.646757264867382,5.666093565666924,-0.0017453292519943296,-0.0017453292519943296,-0.0017453292519943296,-0.1,-0.1,-0.1,-135.09771998282022,35.166669699934694,-0.5799587769000029,24.9,0xFFFF
291,5.820055593000006,adis16470,-0.0122583125,-0.0122583125,-0.0122583125,5.635948316482774,5.6467571016105165,5.666094498102263,-0.0017453292519943296,-0.0017453292519943296,-0.0017453292519943296,-0.1,-0.1,-0.1,-135.0977255134858,35.16666416926909,-0.5819587058000028,24.9,0xFFFF
292,5.8400553459999855,adis16470,-0.0122583125,-0.0122583125,-0.0122583125,5.635947552001404,5.646756940328418,5.666095419257756,-0.0017453292519943296,-0.0017453292519943296,-0.0017453292519943296,-0.1,-0.1,-0.1,-135.0977309772461,35.1666587055088,-0.5839586793000027,24.9,0xFFFF
293,5.8600552280000215,adis16470,-0.0122583125,-0.0122583125,-0.0122583125,5.635946800533418,5.6467567817915825,5.666096324732795,-0.0017453292519943296,-0.0017453292519943296,-0.0017453292519943296,-0.1,-0.1,-0.1,-135.0977363479992,35.166653334755715,-0.5859586694000032,24.9,0xFFFF
294,5.880057684999997,adis16470,-0.0122583125,-0.0122583125,-0.0122583125,5.635946029321062,5.64675661908912,5.66609725399855,-0.0017453292519943296,-0.0017453292519943296,-0.0017453292519943296,-0.1,-0.1,-0.1,-135.0977418598652,35.16664782288969,-0.5879589130999993,24.9,0xFFFF
295,5.900055456000018,adis16470,-0.0122583125,-0.0122583125,-0.0122583125,5.635945337499476,5.646756473135565,5.666098087602994,-0.0017453292519943296,-0.0017453292519943296,-0.0017453292519943296,-0.1,-0.1,-0.1,-135.09774680432392,35.166642878430984,-0.5899586903000003,24.9,0xFFFF
296,5.9200556719999895,adis16470,-0.0122583125,-0.0122583125,-0.0122583125,5.635944625508469,5.64675632292673,5.666098945510327,-0.0017453292519943296,-0.0017453292519943296,-0.0017453292519943296,-0.1,-0.1,-0.1,-135.09775189293342,35.16663778982146,-0.5919587154999991,24.9,0xFFFF
297,5.94005527600001,adis16470,-0.0122583125,-0.0122583125,-0.0122583125,5.6359439368757345,5.646756177645652,5.666099775272241,-0.0017453292519943296,-0.0017453292519943296,-0.0017453292519943296,-0.1,-0.1,-0.1,-135.09775681460079,35.16663286815412,-0.593958674200002,24.9,0xFFFF
298,5.960055232999991,adis16470,-0.0122583125,-0.0122583125,-0.0122583125,5.635943256955877,5.646756034202602,5.666100594535575,-0.0017453292519943296,-0.0017453292519943296,-0.0017453292519943296,-0.1,-0.1,-0.1,-135.09776167399679,35.16662800875813,-0.5959586698000013,24.9,0xFFFF
299,5.980055819000029,adis16470,-0.0122583125,-0.0122583125,-0.0122583125,5.63594258224262,5.646755891857866,5.666101407525191,-0.0017453292519943296,-0.0017453292519943296,-0.0017453292519943296,-0.1,-0.1,-0.1,-135.09776649618084,35.16662318657406,-0.5979587266000014,24.9,0xFFFF
300,6.0000552750000224,adis16470,-0.0122583125,-0.0122583125,-0.0122583125,5.635941935764014,5.646755755469692,5.666102186493651,-0.0017453292519943296,-0.0017453292519943296,-0.0017453292519943296,-0.1,-0.1,-0.1,-135.09777111657124,35.16661856618366,-0.5999586759000013,24.9,0xFFFF
301,6.020056602000011,adis16470,-0.0122583125,-0.0122583125,-0.0122583125,5.635941275284528,5.646755616127619,5.666102982332276,-0.0017453292519943296,-0.0017453292519943296,-0.0017453292519943296,-0.1,-0.1,-0.1,-135.0977758370258,35.16661384572908,-0.6019588215999991,24.9,0xFFFF
302,6.0400552809999795,adis16470,-0.0122583125,-0.0122583125,-0.0122583125,5.635940668149694,5.646755488039615,5.666103713893694,-0.0017453292519943296,-0.0017453292519943296,-0.0017453292519943296,-0.1,-0.1,-0.1,-135.09778017622529,35.166609506529596,-0.6039586746000001,24.9,0xFFFF
303,6.060055533000025,adis16470,-0.0122583125,-0.0122583125,-0.0122583125,5.635940049531705,5.646755357528886,5.666104459291579,-0.0017453292519943296,-0.0017453292519943296,-0.0017453292519943296,-0.1,-0.1,-0.1,-135.0977845974948,35.166605085260095,-0.6059586999000035,24.9,0xFFFF
304,6.080055211999991,adis16470,-0.0122583125,-0.0122583125,-0.0122583125,5.635939451417273,5.646755231343724,5.666105179983832,-0.0017453292519943296,-0.0017453292519943296,-0.0017453292519943296,-0.1,-0.1,-0.1,-135.0977888722249,35.166600810529985,-0.6079586659000031,24.9,0xFFFF
305,6.100055908999991,adis16470,-0.0122583125,-0.0122583125,-0.0122583125,5.6359388510457284,5.646755104682271,5.66610590339572,-0.0017453292519943296,-0.0017453292519943296,-0.0017453292519943296,-0.1,-0.1,-0.1,-135.0977931630864,35.166596519668474,-0.6099587356000032,24.9,0xFFFF
306,6.1200559029999795,adis16470,-0.0122583125,-0.0122583125,-0.0122583125,5.635938272321139,5.64675498258762,5.6661066007242615,-0.0017453292519943296,-0.0017453292519943296,-0.0017453292519943296,-0.1,-0.1,-0.1,-135.0977972992367,35.1665923835182,-0.6119587350000021,24.9,0xFFFF
307,6.14005539599998,adis16470,-0.0122583125,-0.0122583125,-0.0122583125,5.635937711026049,5.646754864170012,5.666107277051248,-0.0017453292519943296,-0.0017453292519943296,-0.0017453292519943296,-0.1,-0.1,-0.1,-135.09780131081797,35.16658837193693,-0.6139586917000035,24.9,0xFFFF
308,6.160055594000028,adis16470,-0.0122583125,-0.0122583125,-0.0122583125,5.6359371528256,5.6467547464051995,5.666107949649327,-0.0017453292519943296,-0.0017453292519943296,-0.0017453292519943296,-0.1,-0.1,-0.1,-135.09780530028164,35.16658438247328,-0.6159587077000029,24.9,0xFFFF
309,6.180055123999978,adis16470,-0.0122583125,-0.0122583125,-0.0122583125,5.635936614167185,5.646754632763131,5.666108598700382,-0.0017453292519943296,-0.0017453292519943296,-0.0017453292519943296,-0.1,-0.1,-0.1,-135.097809150078,35.16658053267691,-0.6179586626000007,24.9,0xFFFF
310,6.200055598999995,adis16470,-0.0122583125,-0.0122583125,-0.0122583125,5.635936074338734,5.646754518874135,5.666109249161213,-0.0017453292519943296,-0.0017453292519943296,-0.0017453292519943296,-0.1,-0.1,-0.1,-135.09781300823647,35.16657667451846,-0.6199587046000037,24.9,0xFFFF
311,6.220055500000001,adis16470,-0.0122583125,-0.0122583125,-0.0122583125,5.635935552176554,5.6467544087121615,5.6661098783352015,-0.0017453292519943296,-0.0017453292519943296,-0.0017453292519943296,-0.1,-0.1,-0.1,-135.09781674013374,35.16657294262119,-0.6219586965000022,24.9,0xFFFF
312,6.240055308000024,adis16470,-0.0122583125,-0.0122583125,-0.0122583125,5.6359350419659195,5.646754301071561,5.66611049310826,-0.0017453292519943296,-0.0017453292519943296,-0.0017453292519943296,-0.1,-0.1,-0.1,-135.09782038661305,35.16656929614185,-0.6239586774000034,24.9,0xFFFF
313,6.260055709000028,adis16470,-0.0122583125,-0.0122583125,-0.0122583125,5.635934533595134,5.646754193819048,5.666111105664367,-0.0017453292519943296,-0.0017453292519943296,-0.0017453292519943296,-0.1,-0.1,-0.1,-135.0978240199428,35.166565662812104,-0.6259587193000019,24.9,0xFFFF
314,6.280055332000018,adis16470,-0.0122583125,-0.0122583125,-0.0122583125,5.635934046553339,5.646754091066306,5.666111692520293,-0.0017453292519943296,-0.0017453292519943296,-0.0017453292519943296,-0.1,-0.1,-0.1,-135.09782750083394,35.16656218192095,-0.627958679800003,24.9,0xFFFF
315,6.30005515900001,adis16470,-0.0122583125,-0.0122583125,-0.0122583125,5.635933565961471,5.646753989674259,5.666112271604409,-0.0017453292519943296,-0.0017453292519943296,-0.0017453292519943296,-0.1,-0.1,-0.1,-135.0978309356273,35.16655874712763,-0.6299586643000002,24.9,0xFFFF
316,6.320055134000029,adis16470,-0.0122583125,-0.0122583125,-0.0122583125,5.635933093459385,5.6467538899888785,5.666112840940791,-0.0017453292519943296,-0.0017453292519943296,-0.0017453292519943296,-0.1,-0.1,-0.1,-135.09783431260274,35.16655537015217,-0.6319586598999994,24.9,0xFFFF
317,6.340057312999988,adis16470,-0.0122583125,-0.0122583125,-0.0122583125,5.635932598142901,5.646753785490199,5.666113437767101,-0.0017453292519943296,-0.0017453292519943296,-0.0017453292519943296,-0.1,-0.1,-0.1,-135.0978378526327,35.166551830122216,-0.6339588908,24.9,0xFFFF
318,6.360058101999982,adis16470,-0.0122583125,-0.0122583125,-0.0122583125,5.635932129763075,5.646753686674378,5.666114002136337,-0.0017453292519943296,-0.0017453292519943296,-0.0017453292519943296,-0.1,-0.1,-0.1,-135.09784120014606,35.16654848260886,-0.635958997500001,24.9,0xFFFF
319,6.380056799999977,adis16470,-0.0122583125,-0.0122583125,-0.0122583125,5.6359317065392425,5.646753597385231,5.666114512095313,-0.0017453292519943296,-0.0017453292519943296,-0.0017453292519943296,-0.1,-0.1,-0.1,-135.09784422492913,35.16654545782578,-0.6379588431999995,24.9,0xFFFF
320,6.400056533999987,adis16470,-0.0122583125,-0.0122583125,-0.0122583125,5.635931275284292,5.6467535064016765,5.666115031731272,-0.0017453292519943296,-0.0017453292519943296,-0.0017453292519943296,-0.1,-0.1,-0.1,-135.09784730711056,35.16654237564435,-0.6399588091999991,24.9,0xFFFF
321,6.420055472000001,adis16470,-0.0122583125,-0.0122583125,-0.0122583125,5.635930863322387,5.6467534194884,5.666115528120257,-0.0017453292519943296,-0.0017453292519943296,-0.0017453292519943296,-0.1,-0.1,-0.1,-135.09785025140437,35.16653943135055,-0.6419586974000031,24.9,0xFFFF
322,6.440055206000011,adis16470,-0.0122583125,-0.0122583125,-0.0122583125,5.6359304476565235,5.646753331793639,5.666116028972259,-0.0017453292519943296,-0.0017453292519943296,-0.0017453292519943296,-0.1,-0.1,-0.1,-135.09785322217027,35.16653646058463,-0.643958672700001,24.9,0xFFFF
323,6.460055254999986,adis16470,-0.0122583125,-0.0122583125,-0.0122583125,5.63593003699936,5.646753245155537,5.666116523789054,-0.0017453292519943296,-0.0017453292519943296,-0.0017453292519943296,-0.1,-0.1,-0.1,-135.09785615713886,35.16653352561604,-0.6459586720999998,24.9,0xFFFF
324,6.4800557120000235,adis16470,-0.0122583125,-0.0122583125,-0.0122583125,5.635929628220364,5.646753158913632,5.666117016342747,-0.0017453292519943296,-0.0017453292519943296,-0.0017453292519943296,-0.1,-0.1,-0.1,-135.09785907868408,35.16653060407081,-0.6479587176999989,24.9,0xFFFF
325,6.500056372000017,adis16470,-0.0122583125,-0.0122583125,-0.0122583125,5.635929221268258,5.6467530730571065,5.666117506695122,-0.0017453292519943296,-0.0017453292519943296,-0.0017453292519943296,-0.1,-0.1,-0.1,-135.0978619871724,35.166527695582474,-0.649958809600003,24.9,0xFFFF
326,6.520055346999982,adis16470,-0.0122583125,-0.0122583125,-0.0122583125,5.6359288518949295,5.646752995128703,5.666117951767349,-0.0017453292519943296,-0.0017453292519943296,-0.0017453292519943296,-0.1,-0.1,-0.1,-135.097864627085,35.166525055669915,-0.6519586868000037,24.9,0xFFFF
327,6.540055247999987,adis16470,-0.0122583125,-0.0122583125,-0.0122583125,5.635928474935509,5.64675291559979,5.6661184059803285,-0.0017453292519943296,-0.0017453292519943296,-0.0017453292519943296,-0.1,-0.1,-0.1,-135.09786732121526,35.166522361539606,-0.6539586732000036,24.9,0xFFFF
328,6.560054686000001,adis16470,-0.0122583125,-0.0122583125,-0.0122583125,5.635928111109776,5.646752838841715,5.666118844367999,-0.0017453292519943296,-0.0017453292519943296,-0.0017453292519943296,-0.1,-0.1,-0.1,-135.09786992147897,35.16651976127591,-0.655958618800003,24.9,0xFFFF
329,6.5800555679999775,adis16470,-0.0122583125,-0.0122583125,-0.0122583125,5.635927735514523,5.646752759600525,5.6661192969372,-0.0017453292519943296,-0.0017453292519943296,-0.0017453292519943296,-0.1,-0.1,-0.1,-135.0978726058594,35.166517076895474,-0.6579587033,24.9,0xFFFF
330,6.600060302000031,adis16470,-0.0122583125,-0.0122583125,-0.0122583125,5.635927313844503,5.6467526706386675,5.6661198050236345,-0.0017453292519943296,-0.0017453292519943296,-0.0017453292519943296,-0.1,-0.1,-0.1,-135.09787561953624,35.166514063218656,-0.6599591786000023,24.9,0xFFFF
331,6.620056277000003,adis16470,-0.0122583125,-0.0122583125,-0.0122583125,5.6359270212189925,5.646752608901954,5.666120157619359,-0.0017453292519943296,-0.0017453292519943296,-0.0017453292519943296,-0.1,-0.1,-0.1,-135.09787771093153,35.166511971823375,-0.6619587743000015,24.9,0xFFFF
332,6.640055399999994,adis16470,-0.0122583125,-0.0122583125,-0.0122583125,5.635926691033657,5.646752539241023,5.6661205554723395,-0.0017453292519943296,-0.0017453292519943296,-0.0017453292519943296,-0.1,-0.1,-0.1,-135.0978800707669,35.166509611988,-0.6639586866000006,24.9,0xFFFF
333,6.660056005000001,adis16470,-0.0122583125,-0.0122583125,-0.0122583125,5.635926341549971,5.646752465508581,5.666120976578628,-0.0017453292519943296,-0.0017453292519943296,-0.0017453292519943296,-0.1,-0.1,-0.1,-135.09788256852758,35.16650711422733,-0.6659587878000028,24.9,0xFFFF
334,6.680056647000015,adis16470,-0.0122583125,-0.0122583125,-0.0122583125,5.635926007434005,5.64675239501832,5.666121379167741,-0.0017453292519943296,-0.0017453292519943296,-0.0017453292519943296,-0.1,-0.1,-0.1,-135.09788495645503,35.16650472629987,-0.6679588279000033,24.9,0xFFFF
335,6.700060732999987,adis16470,-0.0122583125,-0.0122583125,-0.0122583125,5.63592563048616,5.646752315491544,5.6661218333666055,-0.0017453292519943296,-0.0017453292519943296,-0.0017453292519943296,-0.1,-0.1,-0.1,-135.09788765050195,35.166502032252964,-0.6699592290999992,24.9,0xFFFF
336,6.720055949000027,adis16470,-0.0122583125,-0.0122583125,-0.0122583125,5.635925378904855,5.646752262414021,5.666122136506519,-0.0017453292519943296,-0.0017453292519943296,-0.0017453292519943296,-0.1,-0.1,-0.1,-135.0978894485539,35.166500234201,-0.6719587709999989,24.9,0xFFFF
337,6.740055294000001,adis16470,-0.0122583125,-0.0122583125,-0.0122583125,5.6359250813052295,5.6467521996277314,5.666122495095651,-0.0017453292519943296,-0.0017453292519943296,-0.0017453292519943296,-0.1,-0.1,-0.1,-135.09789157549883,35.16649810725607,-0.6739586852000006,24.9,0xFFFF
338,6.760055973000021,adis16470,-0.0122583125,-0.0122583125,-0.0122583125,5.63592476807483,5.6467521335437,5.666122872518887,-0.0017453292519943296,-0.0017453292519943296,-0.0017453292519943296,-0.1,-0.1,-0.1,-135.09789381415686,35.16649586859803,-0.6759587568000033,24.9,0xFFFF
339,6.780055206999975,adis16470,-0.0122583125,-0.0122583125,-0.0122583125,5.6359244827055015,5.646752073337654,5.666123216371243,-0.0017453292519943296,-0.0017453292519943296,-0.0017453292519943296,-0.1,-0.1,-0.1,-135.09789585369177,35.166493829063164,-0.6779586709000004,24.9,0xFFFF
340,6.8000574409999786,adis16470,-0.0122583125,-0.0122583125,-0.0122583125,5.635924161139542,5.6467520054949665,5.6661236038382805,-0.0017453292519943296,-0.0017453292519943296,-0.0017453292519943296,-0.1,-0.1,-0.1,-135.09789815192394,35.16649153083099,-0.6799588906000001,24.9,0xFFFF
341,6.8200550089999865,adis16470,-0.0122583125,-0.0122583125,-0.0122583125,5.6359239094779525,5.646751952400401,5.666123907074875,-0.0017453292519943296,-0.0017453292519943296,-0.0017453292519943296,-0.1,-0.1,-0.1,-135.09789995054945,35.166489732205456,-0.681958647400001,24.9,0xFFFF
342,6.840055224000025,adis16470,-0.0122583125,-0.0122583125,-0.0122583125,5.63592362578593,5.646751892548159,5.666124248906142,-0.0017453292519943296,-0.0017453292519943296,-0.0017453292519943296,-0.1,-0.1,-0.1,-135.09790197809647,35.16648770465844,-0.6839586745000025,24.9,0xFFFF
343,6.860057365999978,adis16470,-0.0122583125,-0.0122583125,-0.0122583125,5.635923317546388,5.646751827516953,5.666124620315628,-0.0017453292519943296,-0.0017453292519943296,-0.0017453292519943296,-0.1,-0.1,-0.1,-135.09790418108454,35.16648550167035,-0.6859589220000037,24.9,0xFFFF
344,6.880057636999993,adis16470,-0.0122583125,-0.0122583125,-0.0122583125,5.635923047215019,5.646751770483448,5.66612494604811,-0.0017453292519943296,-0.0017453292519943296,-0.0017453292519943296,-0.1,-0.1,-0.1,-135.09790611314284,35.16648356961204,-0.6879589380000033,24.9,0xFFFF
345,6.90005970499999,adis16470,-0.0122583125,-0.0122583125,-0.0122583125,5.635922757910251,5.646751709446981,5.666125294642346,-0.0017453292519943296,-0.0017453292519943296,-0.0017453292519943296,-0.1,-0.1,-0.1,-135.09790818080398,35.16648150195089,-0.6899591318000039,24.9,0xFFFF
346,6.9200576239999805,adis16470,-0.0122583125,-0.0122583125,-0.0122583125,5.635922529747107,5.646751661309934,5.666125569564723,-0.0017453292519943296,-0.0017453292519943296,-0.0017453292519943296,-0.1,-0.1,-0.1,-135.09790981148592,35.16647987126896,-0.6919589218999993,24.9,0xFFFF
347,6.940058136000005,adis16470,-0.0122583125,-0.0122583125,-0.0122583125,5.635922269577191,5.646751606420196,5.666125883053255,-0.0017453292519943296,-0.0017453292519943296,-0.0017453292519943296,-0.1,-0.1,-0.1,-135.0979116709202,35.16647801183468,-0.6939589786999993,24.9,0xFFFF
348,6.960056258999998,adis16470,-0.0122583125,-0.0122583125,-0.0122583125,5.635922046614587,5.646751559380312,5.666126151709285,-0.0017453292519943296,-0.0017453292519943296,-0.0017453292519943296,-0.1,-0.1,-0.1,-135.0979132644338,35.166476418321075,-0.6959588021000007,24.9,0xFFFF
349,6.98005751200003,adis16470,-0.0122583125,-0.0122583125,-0.0122583125,5.635921789004468,5.646751505030593,5.666126462113404,-0.0017453292519943296,-0.0017453292519943296,-0.0017453292519943296,-0.1,-0.1,-0.1,-135.09791510557315,35.16647457718174,-0.6979589107000043,24.9,0xFFFF
350,7.000062580000019,adis16470,-0.0122583125,-0.0122583125,-0.0122583125,5.635921479408439,5.6467514397130385,5.666126835157286,-0.0017453292519943296,-0.0017453292519943296,-0.0017453292519943296,-0.1,-0.1,-0.1,-135.0979173182557,35.16647236449919,-0.6999594360000008,24.9,0xFFFF
351,7.020057092000002,adis16470,-0.0122583125,-0.0122583125,-0.0122583125,5.6359213253148255,5.646751407202863,5.666127020830461,-0.0017453292519943296,-0.0017453292519943296,-0.0017453292519943296,-0.1,-0.1,-0.1,-135.0979184195626,35.1664712631923,-0.7019588724000021,24.9,0xFFFF
352,7.040055640999981,adis16470,-0.0122583125,-0.0122583125,-0.0122583125,5.635921117178686,5.646751363290957,5.666127271621498,-0.0017453292519943296,-0.0017453292519943296,-0.0017453292519943296,-0.1,-0.1,-0.1,-135.09791990711136,35.16646977564355,-0.703958725400003,24.9,0xFFFF
353,7.060055431000023,adis16470,-0.0122583125,-0.0122583125,-0.0122583125,5.635920896942775,5.646751316826266,5.666127536991999,-0.0017453292519943296,-0.0017453292519943296,-0.0017453292519943296,-0.1,-0.1,-0.1,-135.09792148113715,35.166468201617775,-0.7059586970000002,24.9,0xFFFF
354,7.080056184,adis16470,-0.0122583125,-0.0122583125,-0.0122583125,5.635920667399526,5.64675126839793,5.666127813577248,-0.0017453292519943296,-0.0017453292519943296,-0.0017453292519943296,-0.1,-0.1,-0.1,-135.0979231216824,35.166466561072504,-0.707958768600003,24.9,0xFFFF
355,7.1000554550000174,adis16470,-0.0122583125,-0.0122583125,-0.0122583125,5.635920462261052,5.646751225118425,5.6661280607562645,-0.0017453292519943296,-0.0017453292519943296,-0.0017453292519943296,-0.1,-0.1,-0.1,-135.09792458780677,35.16646509494815,-0.709958695699999,24.9,0xFFFF
356,7.120055689000026,adis16470,-0.0122583125,-0.0122583125,-0.0122583125,5.635920247760109,5.646751179863641,5.6661283192164635,-0.0017453292519943296,-0.0017453292519943296,-0.0017453292519943296,-0.1,-0.1,-0.1,-135.09792612084468,35.16646356191027,-0.7119587210000025,24.9,0xFFFF
357,7.140057479000006,adis16470,-0.0122583125,-0.0122583125,-0.0122583125,5.635920014951722,5.646751130746393,5.666128599735973,-0.0017453292519943296,-0.0017453292519943296,-0.0017453292519943296,-0.1,-0.1,-0.1,-135.09792778472578,35.166461898029155,-0.7139589111000025,24.9,0xFFFF
358,7.160056619999978,adis16470,-0.0122583125,-0.0122583125,-0.0122583125,5.635919821079626,5.646751089843802,5.666128833339688,-0.0017453292519943296,-0.0017453292519943296,-0.0017453292519943296,-0.1,-0.1,-0.1,-135.09792917032925,35.16646051242567,-0.7159588512000032,24.9,0xFFFF
359,7.180057836000003,adis16470,-0.0122583125,-0.0122583125,-0.0122583125,5.635919605182904,5.646751044294502,5.666129093481692,-0.0017453292519943296,-0.0017453292519943296,-0.0017453292519943296,-0.1,-0.1,-0.1,-135.0979307133427,35.16645896941225,-0.7179589802000015,24.9,0xFFFF
360,7.200058904000002,adis16470,-0.0122583125,-0.0122583125,-0.0122583125,5.6359193979234075,5.6467510005674475,5.666129343216372,-0.0017453292519943296,-0.0017453292519943296,-0.0017453292519943296,-0.1,-0.1,-0.1,-135.09793219462586,35.1664574881291,-0.7199590777000031,24.9,0xFFFF
361,7.220055860000002,adis16470,-0.0122583125,-0.0122583125,-0.0122583125,5.635919253469254,5.64675097009089,5.666129517274553,-0.0017453292519943296,-0.0017453292519943296,-0.0017453292519943296,-0.1,-0.1,-0.1,-135.09793322703936,35.166456455715604,-0.7219587474000042,24.9,0xFFFF
362,7.240055408999979,adis16470,-0.0122583125,-0.0122583125,-0.0122583125,5.635919073304757,5.64675093208025,5.66612973436145,-0.0017453292519943296,-0.0017453292519943296,-0.0017453292519943296,-0.1,-0.1,-0.1,-135.09793451467456,35.166455168080375,-0.7239586986000012,24.9,0xFFFF
363,7.260057736000022,adis16470,-0.0122583125,-0.0122583125,-0.0122583125,5.635918854085354,5.646750885829893,5.666129998507049,-0.0017453292519943296,-0.0017453292519943296,-0.0017453292519943296,-0.1,-0.1,-0.1,-135.0979360814351,35.166453601319866,-0.7259589608999995,24.9,0xFFFF
364,7.280058267000015,adis16470,-0.0122583125,-0.0122583125,-0.0122583125,5.635918661847796,5.646750845272088,5.666130230141213,-0.0017453292519943296,-0.0017453292519943296,-0.0017453292519943296,-0.1,-0.1,-0.1,-135.0979374553564,35.166452227398565,-0.7279590584000011,24.9,0xFFFF
365,7.300055760000021,adis16470,-0.0122583125,-0.0122583125,-0.0122583125,5.635918530839926,5.646750817632365,5.666130387997452,-0.0017453292519943296,-0.0017453292519943296,-0.0017453292519943296,-0.1,-0.1,-0.1,-135.0979383916693,35.16645129108568,-0.7299587374000004,24.9,0xFFFF
366,7.320056771999987,adis16470,-0.0122583125,-0.0122583125,-0.0122583125,5.635918340501158,5.6467507774751455,5.666130617343684,-0.0017453292519943296,-0.0017453292519943296,-0.0017453292519943296,-0.1,-0.1,-0.1,-135.0979397520199,35.16644993073506,-0.7319588682000023,24.9,0xFFFF
367,7.3400573210000175,adis16470,-0.0122583125,-0.0122583125,-0.0122583125,5.635918163361919,5.646750740102721,5.66613083078531,-0.0017453292519943296,-0.0017453292519943296,-0.0017453292519943296,-0.1,-0.1,-0.1,-135.0979410180335,35.16644866472145,-0.7339589305000009,24.9,0xFFFF
368,7.360059426000021,adis16470,-0.0122583125,-0.0122583125,-0.0122583125,5.635917960558789,5.646750697315777,5.666131075150304,-0.0017453292519943296,-0.0017453292519943296,-0.0017453292519943296,-0.1,-0.1,-0.1,-135.09794246746685,35.16644721528811,-0.7359592058000038,24.9,0xFFFF
369,7.380059660000029,adis16470,-0.0122583125,-0.0122583125,-0.0122583125,5.635917807267175,5.646750664974651,5.666131259857035,-0.0017453292519943296,-0.0017453292519943296,-0.0017453292519943296,-0.1,-0.1,-0.1,-135.09794356304153,35.16644611971344,-0.7379591495999995,24.9,0xFFFF
370,7.400055727999984,adis16470,-0.0122583125,-0.0122583125,-0.0122583125,5.635917705294106,5.646750643460597,5.666131382728151,-0.0017453292519943296,-0.0017453292519943296,-0.0017453292519943296,-0.1,-0.1,-0.1,-135.0979442918427,35.166445390912266,-0.7399587414999991,24.9,0xFFFF
371,7.420055257999991,adis16470,-0.0122583125,-0.0122583125,-0.0122583125,5.635917557861944,5.646750612355676,5.6661315603746045,-0.0017453292519943296,-0.0017453292519943296,-0.0017453292519943296,-0.1,-0.1,-0.1,-135.09794534553987,35.16644433721511,-0.7419586798000017,24.9,0xFFFF
372,7.440055196000003,adis16470,-0.0122583125,-0.0122583125,-0.0122583125,5.635917406028764,5.6467505803222355,5.666131743324003,-0.0017453292519943296,-0.0017453292519943296,-0.0017453292519943296,-0.1,-0.1,-0.1,-135.09794643069105,35.16644325206389,-0.7439586717000003,24.9,0xFFFF
373,7.4600583559999905,adis16470,-0.0122583125,-0.0122583125,-0.0122583125,5.635917205674921,5.646750538051995,5.666131984737734,-0.0017453292519943296,-0.0017453292519943296,-0.0017453292519943296,-0.1,-0.1,-0.1,-135.09794786261924,35.1664418201357,-0.7459590396000015,24.9,0xFFFF
374,7.480056886999989,adis16470,-0.0122583125,-0.0122583125,-0.0122583125,5.6359170860196715,5.646750512807373,5.666132128914751,-0.0017453292519943296,-0.0017453292519943296,-0.0017453292519943296,-0.1,-0.1,-0.1,-135.09794871779485,35.16644096496008,-0.7479588482000002,24.9,0xFFFF
375,7.5000634549999745,adis16470,-0.0122583125,-0.0122583125,-0.0122583125,5.635916837478318,5.646750460370605,5.666132428391378,-0.0017453292519943296,-0.0017453292519943296,-0.0017453292519943296,-0.1,-0.1,-0.1,-135.09795049411898,35.16643918863598,-0.7499596142000035,24.9,0xFFFF
376,7.520056318000002,adis16470,-0.0122583125,-0.0122583125,-0.0122583125,5.6359168087208324,5.6467504543034055,5.666132463042329,-0.0017453292519943296,-0.0017453292519943296,-0.0017453292519943296,-0.1,-0.1,-0.1,-135.0979506996486,35.16643898310634,-0.7519588136000044,24.9,0xFFFF
377,7.54005640500003,adis16470,-0.0122583125,-0.0122583125,-0.0122583125,5.635916672117282,5.64675042548305,5.6661326276409705,-0.0017453292519943296,-0.0017453292519943296,-0.0017453292519943296,-0.1,-0.1,-0.1,-135.09795167595362,35.16643800680131,-0.7539588036999992,24.9,0xFFFF
378,7.560056212999996,adis16470,-0.0122583125,-0.0122583125,-0.0122583125,5.635916539521022,5.6467503975081375,5.666132787411078,-0.0017453292519943296,-0.0017453292519943296,-0.0017453292519943296,-0.1,-0.1,-0.1,-135.09795262361857,35.16643705913637,-0.7559587845000014,24.9,0xFFFF
379,7.580056205999995,adis16470,-0.0122583125,-0.0122583125,-0.0122583125,5.635916408301463,5.646750369823676,5.666132945522342,-0.0017453292519943296,-0.0017453292519943296,-0.0017453292519943296,-0.1,-0.1,-0.1,-135.0979535614442,35.16643612131074,-0.757958774600002,24.9,0xFFFF
380,7.600055478000002,adis16470,-0.0122583125,-0.0122583125,-0.0122583125,5.635916288591708,5.646750344567526,5.6661330897650215,-0.0017453292519943296,-0.0017453292519943296,-0.0017453292519943296,-0.1,-0.1,-0.1,-135.0979544170093,35.16643526574561,-0.7599586999000001,24.9,0xFFFF
381,7.6200560269999755,adis16470,-0.0122583125,-0.0122583125,-0.0122583125,5.635916152997975,5.646750315960197,5.666133253146887,-0.0017453292519943296,-0.0017453292519943296,-0.0017453292519943296,-0.1,-0.1,-0.1,-135.09795538609714,35.16643429665779,-0.7619587585000038,24.9,0xFFFF
382,7.64005522399998,adis16470,-0.0122583125,-0.0122583125,-0.0122583125,5.635916039669507,5.646750292050352,5.666133389700513,-0.0017453292519943296,-0.0017453292519943296,-0.0017453292519943296,-0.1,-0.1,-0.1,-135.0979561960552,35.166433486699724,-0.7639586745000037,24.9,0xFFFF
383,7.660055051000029,adis16470,-0.0122583125,-0.0122583125,-0.0122583125,5.63591591921485,5.64675026663703,5.6661335348407444,-0.0017453292519943296,-0.0017453292519943296,-0.0017453292519943296,-0.1,-0.1,-0.1,-135.09795705694413,35.16643262581083,-0.7659586590000009,24.9,0xFFFF
384,7.680057766999994,adis16470,-0.0122583125,-0.0122583125,-0.0122583125,5.635915757235857,5.646750232462968,5.666133730015167,-0.0017453292519943296,-0.0017453292519943296,-0.0017453292519943296,-0.1,-0.1,-0.1,-135.09795821460725,35.1664314681477,-0.7679589639000034,24.9,0xFFFF
385,7.700058334000005,adis16470,-0.0122583125,-0.0122583125,-0.0122583125,5.6359156325160535,5.646750206149786,5.666133880294623,-0.0017453292519943296,-0.0017453292519943296,-0.0017453292519943296,-0.1,-0.1,-0.1,-135.0979591059791,35.16643057677584,-0.7699590207000034,24.9,0xFFFF
386,7.720055476000027,adis16470,-0.0122583125,-0.0122583125,-0.0122583125,5.635915559804878,5.646750190809297,5.666133967906978,-0.0017453292519943296,-0.0017453292519943296,-0.0017453292519943296,-0.1,-0.1,-0.1,-135.09795962564553,35.16643005710941,-0.7719587164000024,24.9,0xFFFF
387,7.740058006000027,adis16470,-0.0122583125,-0.0122583125,-0.0122583125,5.635915407303994,5.646750158634896,5.666134151660871,-0.0017453292519943296,-0.0017453292519943296,-0.0017453292519943296,-0.1,-0.1,-0.1,-135.0979607155686,35.16642896718631,-0.7739590045999996,24.9,0xFFFF
388,7.760056241000029,adis16470,-0.0122583125,-0.0122583125,-0.0122583125,5.63591531803534,5.646750139801132,5.666134259223936,-0.0017453292519943296,-0.0017453292519943296,-0.0017453292519943296,-0.1,-0.1,-0.1,-135.09796135357124,35.166428329183674,-0.7759588538999999,24.9,0xFFFF
389,7.780056770999977,adis16470,-0.0122583125,-0.0122583125,-0.0122583125,5.635915211752828,5.646750117377807,5.666134387287616,-0.0017453292519943296,-0.0017453292519943296,-0.0017453292519943296,-0.1,-0.1,-0.1,-135.09796211317183,35.16642756958309,-0.7779588402999997,24.9,0xFFFF
390,7.800058598000021,adis16470,-0.0122583125,-0.0122583125,-0.0122583125,5.63591507814247,5.646750089188888,5.666134548279616,-0.0017453292519943296,-0.0017453292519943296,-0.0017453292519943296,-0.1,-0.1,-0.1,-135.0979630680844,35.16642661467051,-0.7799590415000018,24.9,0xFFFF
391,7.8200577399999815,adis16470,-0.0122583125,-0.0122583125,-0.0122583125,5.6359149890946485,5.646750070401707,5.666134655576584,-0.0017453292519943296,-0.0017453292519943296,-0.0017453292519943296,-0.1,-0.1,-0.1,-135.0979637045087,35.166425978246195,-0.7819589372000002,24.9,0xFFFF
392,7.840057659000024,adis16470,-0.0122583125,-0.0122583125,-0.0122583125,5.635914885839526,5.646750048617086,5.666134779992447,-0.0017453292519943296,-0.0017453292519943296,-0.0017453292519943296,-0.1,-0.1,-0.1,-135.09796444247252,35.16642524028236,-0.7839589494999991,24.9,0xFFFF
393,7.860057170999994,adis16470,-0.0122583125,-0.0122583125,-0.0122583125,5.635914791752351,5.646750028766702,5.666134893361516,-0.0017453292519943296,-0.0017453292519943296,-0.0017453292519943296,-0.1,-0.1,-0.1,-135.09796511491308,35.1664245678418,-0.7859589100000001,24.9,0xFFFF
394,7.880056720000027,adis16470,-0.0122583125,-0.0122583125,-0.0122583125,5.635914704634093,5.646750010386607,5.666134998333485,-0.0017453292519943296,-0.0017453292519943296,-0.0017453292519943296,-0.1,-0.1,-0.1,-135.09796573754682,35.16642394520806,-0.7879588334000012,24.9,0xFFFF
395,7.900055287999976,adis16470,-0.0122583125,-0.0122583125,-0.0122583125,5.635914629926178,5.646749994624829,5.666135088351772,-0.0017453292519943296,-0.0017453292519943296,-0.0017453292519943296,-0.1,-0.1,-0.1,-135.0979662714839,35.16642341127099,-0.7899586790000007,24.9,0xFFFF
396,7.920059819000016,adis16470,-0.0122583125,-0.0122583125,-0.0122583125,5.635914466555644,5.646749960157124,5.666135285202881,-0.0017453292519943296,-0.0017453292519943296,-0.0017453292519943296,-0.1,-0.1,-0.1,-135.09796743909223,35.16642224366266,-0.7919591821000046,24.9,0xFFFF
397,7.94005925700003,adis16470,-0.0122583125,-0.0122583125,-0.0122583125,5.6359143831440575,5.646749942559052,5.666135385708538,-0.0017453292519943296,-0.0017453292519943296,-0.0017453292519943296,-0.1,-0.1,-0.1,-135.09796803523437,35.1664216475205,-0.7939591259000003,24.9,0xFFFF
398,7.96005611999999,adis16470,-0.0122583125,-0.0122583125,-0.0122583125,5.635914342797403,5.646749934046766,5.666135434323689,-0.0017453292519943296,-0.0017453292519943296,-0.0017453292519943296,-0.1,-0.1,-0.1,-135.0979683235917,35.16642135916318,-0.7959587677999997,24.9,0xFFFF
399,7.98005535499999,adis16470,-0.0122583125,-0.0122583125,-0.0122583125,5.635914264905056,5.646749917613133,5.666135528179012,-0.0017453292519943296,-0.0017453292519943296,-0.0017453292519943296,-0.1,-0.1,-0.1,-135.09796888028788,35.166420802467,-0.7979586894000028,24.9,0xFFFF
400,8.000056200000017,adis16470,-0.0122583125,-0.0122583125,-0.0122583125,5.63591416674096,5.6467498969025876,5.666135646460502,-0.0017453292519943296,-0.0017453292519943296,-0.0017453292519943296,-0.1,-0.1,-0.1,-135.09796958186612,35.16642010088876,-0.7999587701999991,24.9,0xFFFF
401,8.020061026999997,adis16470,-0.0122583125,-0.0122583125,-0.0122583125,5.6359140144166915,5.646749864765389,5.66613583000155,-0.0017453292519943296,-0.0017453292519943296,-0.0017453292519943296,-0.1,-0.1,-0.1,-135.09797067052682,35.16641901222807,-0.8019592603000041,24.9,0xFFFF
402,8.040055871999982,adis16470,-0.0122583125,-0.0122583125,-0.0122583125,5.635914003781527,5.646749862521593,5.666135842816249,-0.0017453292519943296,-0.0017453292519943296,-0.0017453292519943296,-0.1,-0.1,-0.1,-135.09797074653628,35.166418936218605,-0.8039587393000039,24.9,0xFFFF
403,8.060055439999985,adis16470,-0.0122583125,-0.0122583125,-0.0122583125,5.63591392810338,5.646749846555101,5.666135934003599,-0.0017453292519943296,-0.0017453292519943296,-0.0017453292519943296,-0.1,-0.1,-0.1,-135.09797128740757,35.16641839534732,-0.8059586942000015,24.9,0xFFFF
404,8.080055322000021,adis16470,-0.0122583125,-0.0122583125,-0.0122583125,5.635913849358968,5.646749829941691,5.666136028885601,-0.0017453292519943296,-0.0017453292519943296,-0.0017453292519943296,-0.1,-0.1,-0.1,-135.09797185019346,35.166417832561464,-0.8079586825000041,24.9,0xFFFF
405,8.100055279000003,adis16470,-0.0122583125,-0.0122583125,-0.0122583125,5.635913771435282,5.646749813501433,5.66613612277868,-0.0017453292519943296,-0.0017453292519943296,-0.0017453292519943296,-0.1,-0.1,-0.1,-135.0979724071136,35.16641727564134,-0.8099586762999996,24.9,0xFFFF
406,8.120060808999995,adis16470,-0.0122583125,-0.0122583125,-0.0122583125,5.635913617624362,5.646749781050569,5.666136308111039,-0.0017453292519943296,-0.0017453292519943296,-0.0017453292519943296,-0.1,-0.1,-0.1,-135.0979735063993,35.16641617635559,-0.8119592349000021,24.9,0xFFFF
407,8.140056006999998,adis16470,-0.0122583125,-0.0122583125,-0.0122583125,5.6359136096047635,5.646749779358602,5.666136317774142,-0.0017453292519943296,-0.0017453292519943296,-0.0017453292519943296,-0.1,-0.1,-0.1,-135.09797356371533,35.16641611903957,-0.813958752700001,24.9,0xFFFF
408,8.160055519000025,adis16470,-0.0122583125,-0.0122583125,-0.0122583125,5.6359135423037845,5.646749765159509,5.666136398867535,-0.0017453292519943296,-0.0017453292519943296,-0.0017453292519943296,-0.1,-0.1,-0.1,-135.09797404471504,35.166415638039865,-0.8159587040000025,24.9,0xFFFF
409,8.180054197000004,adis16470,-0.0122583125,-0.0122583125,-0.0122583125,5.635913487291047,5.646749753552977,5.666136465154376,-0.0017453292519943296,-0.0017453292519943296,-0.0017453292519943296,-0.1,-0.1,-0.1,-135.0979744378907,35.16641524486416,-0.817958575500001,24.9,0xFFFF
410,8.200055745999975,adis16470,-0.0122583125,-0.0122583125,-0.0122583125,5.6359133935038965,5.646749733765855,5.666136578161914,-0.0017453292519943296,-0.0017453292519943296,-0.0017453292519943296,-0.1,-0.1,-0.1,-135.09797510818692,35.166414574567966,-0.8199587377999995,24.9,0xFFFF
411,8.220056795000005,adis16470,-0.0122583125,-0.0122583125,-0.0122583125,5.6359133104779024,5.64674971624911,5.666136678202941,-0.0017453292519943296,-0.0017453292519943296,-0.0017453292519943296,-0.1,-0.1,-0.1,-135.09797570157318,35.1664139811817,-0.8219588353000011,24.9,0xFFFF
412,8.24005575199999,adis16470,-0.0122583125,-0.0122583125,-0.0122583125,5.63591325729071,5.646749705027727,5.6661367422901145,-0.0017453292519943296,-0.0017453292519943296,-0.0017453292519943296,-0.1,-0.1,-0.1,-135.09797608170172,35.16641360105316,-0.8239587272999989,24.9,0xFFFF
413,8.260055264000016,adis16470,-0.0122583125,-0.0122583125,-0.0122583125,5.635913196295559,5.646749692159026,5.666136815785381,-0.0017453292519943296,-0.0017453292519943296,-0.0017453292519943296,-0.1,-0.1,-0.1,-135.09797651763367,35.166413165121185,-0.8259586840000003,24.9,0xFFFF
414,8.280055628000014,adis16470,-0.0122583125,-0.0122583125,-0.0122583125,5.63591312660649,5.646749677456087,5.666136899756265,-0.0017453292519943296,-0.0017453292519943296,-0.0017453292519943296,-0.1,-0.1,-0.1,-135.09797701570105,35.16641266705385,-0.8279587130000043,24.9,0xFFFF
415,8.300055102999977,adis16470,-0.0122583125,-0.0122583125,-0.0122583125,5.6359130694865325,5.646749665404966,5.666136968582171,-0.0017453292519943296,-0.0017453292519943296,-0.0017453292519943296,-0.1,-0.1,-0.1,-135.09797742393704,35.166412258817864,-0.8299586605000007,24.9,0xFFFF
416,8.320059114999992,adis16470,-0.0122583125,-0.0122583125,-0.0122583125,5.635912951036833,5.646749640414547,5.6661371113065035,-0.0017453292519943296,-0.0017453292519943296,-0.0017453292519943296,-0.1,-0.1,-0.1,-135.09797827049633,35.166411412258604,-0.8319590635999992,24.9,0xFFFF
417,8.340056349000008,adis16470,-0.0122583125,-0.0122583125,-0.0122583125,5.635912922576181,5.646749634409941,5.666137145599773,-0.0017453292519943296,-0.0017453292519943296,-0.0017453292519943296,-0.1,-0.1,-0.1,-135.09797847390442,35.16641120885051,-0.8339588277000023,24.9,0xFFFF
418,8.360057250000011,adis16470,-0.0122583125,-0.0122583125,-0.0122583125,5.635912847693518,5.646749618611258,5.666137235828599,-0.0017453292519943296,-0.0017453292519943296,-0.0017453292519943296,-0.1,-0.1,-0.1,-135.09797900909032,35.16641067366459,-0.8359589345000022,24.9,0xFFFF
419,8.380056614000011,adis16470,-0.0122583125,-0.0122583125,-0.0122583125,5.635912804283068,5.64674960945256,5.666137288135418,-0.0017453292519943296,-0.0017453292519943296,-0.0017453292519943296,-0.1,-0.1,-0.1,-135.0979793193445,35.16641036341039,-0.8379588227000004,24.9,0xFFFF
420,8.400055495999993,adis16470,-0.0122583125,-0.0122583125,-0.0122583125,5.6359127622344625,5.6467496005811775,5.666137338801303,-0.0017453292519943296,-0.0017453292519943296,-0.0017453292519943296,-0.1,-0.1,-0.1,-135.0979796198656,35.16641006288928,-0.8399587073000025,24.9,0xFFFF
421,8.420060026999977,adis16470,-0.0122583125,-0.0122583125,-0.0122583125,5.635912637753492,5.6467495743182745,5.666137488792925,-0.0017453292519943296,-0.0017453292519943296,-0.0017453292519943296,-0.1,-0.1,-0.1,-135.09798050953032,35.16640917322459,-0.8419591992,24.9,0xFFFF
