sample,time_s,sensor,accel_x_g,accel_y_g,accel_z_g,accel_x_mps2,accel_y_mps2,accel_z_mps2,gyro_x_dps,gyro_y_dps,gyro_z_dps,gyro_x_radps,gyro_y_radps,gyro_z_radps,roll_deg,pitch_deg,yaw_deg,accel_roll_deg,accel_pitch_deg,temp_c,diag_stat,prod_id
0,0.0005513270000392367,adis16470,-0.005,0.00125,0.99375,-0.04903325,0.0122583125,9.7453584375,-0.131,-0.07999999999999999,0.142,-0.002286381320112572,-0.0013962634015954635,0.002478367537831948,0.07207012489938787,0.2882779909681424,0.0,0.07207012489938787,0.2882779909681424,24.6,0x0000,0x4056
1,0.0355419489999349,adis16470,-0.0025,0.00125,1.0,-0.024516625,0.0122583125,9.80665,-0.031,0.020000000000000018,-0.05800000000000003,-0.0005410520681182421,0.0003490658503988662,-0.0010122909661567116,0.0709981494421716,0.28606299688644427,-0.0020293636819951654,0.07161968708944809,0.14323903846331773,24.400000000000002,0x0000,0x4056
2,0.07044091100010519,adis16470,0.0025,0.00375,0.995,0.024516625,0.03677493749999999,9.757616749999999,-0.331,-0.07999999999999999,0.142,-0.005777039824101231,-0.0013962634015954635,0.002478367537831948,0.06257682645633215,0.27472659863996296,0.0029261101440147272,0.21593784510832903,-0.14395791967734764,24.700000000000003,0x0000,0x4056
3,0.10528258099998311,adis16470,-0.00125,0.0025,1.0025,-0.0122583125,0.024516625,9.831166624999998,-0.131,0.020000000000000018,0.041999999999999975,-0.002286381320112572,0.0003490658503988662,0.000733038285837618,0.05970995283314435,0.27134378102003825,0.00438946108201071,0.142881946987328,0.07144086242382265,24.6,0x0000,0x4056
4,0.14014239800008,adis16470,0.0075,0.01125,1.02375,0.07354987499999999,0.1103248125,10.039557937499998,-0.131,-0.18,0.041999999999999975,-0.002286381320112572,-0.003141592653589793,0.000733038285837618,0.06663244176683641,0.2513733309469964,0.005853567138014111,0.6295986084102669,-0.41971645087133924,24.700000000000003,0x0000,0x4056
5,0.1750463769999442,adis16470,-0.005,0.00625,0.99875,-0.04903325,0.0612915625,9.7943916875,-0.031,-0.18,0.142,-0.0005410520681182421,-0.003141592653589793,0.002478367537831948,0.07141024128453863,0.24592532562980438,0.01080998483801886,0.3585421253019974,0.2868294320876917,24.400000000000002,0x0000,0x4056
6,0.20996481499992115,adis16470,0.00875,-0.00375,1.00625,0.08580818750000001,-0.03677493749999999,9.8679415625,-0.031,-0.07999999999999999,0.041999999999999975,-0.0005410520681182421,-0.0013962634015954635,0.000733038285837618,0.06465074964495927,0.22830507231011787,0.012276547558017225,-0.21352365565448742,-0.49820815315467337,24.700000000000003,0x0000,0x4056
7,0.24488930799998343,adis16470,0.0,0.00125,1.00625,0.0,0.0122583125,9.8679415625,0.069,0.020000000000000018,-0.15800000000000003,0.0012042771838760874,0.0003490658503988662,-0.002757620218151041,0.06714284206057236,0.2244234956503158,0.006758439586014898,0.07117484477156402,-0.0,24.5,0x0000,0x4056
8,0.27973126999995657,adis16470,-0.005,0.00625,0.915,-0.04903325,0.0612915625,8.97308475,-0.23100000000000004,0.12000000000000002,0.142,-0.004031710572106902,0.0020943951023931957,0.002478367537831948,0.06573971617606286,0.23029402238685934,0.011705945650017834,0.3913585276833313,0.3130812715173708,24.8,0x0000,0x4056
9,0.3145521409999219,adis16470,-0.0025,0.00875,1.0050000000000001,-0.024516625,0.08580818750000001,9.85568325,-0.331,0.020000000000000018,-0.15800000000000003,-0.005777039824101231,0.0003490658503988662,-0.002757620218151041,0.06310637083298454,0.22922105229545997,0.006204256880037513,0.4988312475051259,0.14252111911701343,24.900000000000002,0x0000,0x4056
10,0.3493956039999375,adis16470,-0.00625,0.005,1.0275,-0.0612915625,0.04903325,10.076332875,0.069,-0.07999999999999999,-0.05800000000000003,0.0012042771838760874,-0.0013962634015954635,-0.0010122909661567116,0.0697765509571692,0.22887501894058887,0.004183331734029246,0.2788093784447353,0.34850604959246395,24.8,0x0000,0x4056
11,0.3842133079999712,adis16470,-0.00375,0.00125,0.99875,-0.03677493749999999,0.0122583125,9.7943916875,-0.031,0.020000000000000018,-0.15800000000000003,-0.0005410520681182421,0.0003490658503988662,-0.002757620218151041,0.06875744681164028,0.2292824821869922,-0.0013178538059560275,0.0717093236505815,0.21512690386084704,24.5,0x0000,0x4056
12,0.4190639920000194,adis16470,0.0,0.00625,0.99,0.0,0.0612915625,9.7085835,-0.131,0.020000000000000018,-0.25800000000000006,-0.002286381320112572,0.0003490658503988662,-0.004502949470145371,0.07014238180140293,0.22537990667485455,-0.01030933982398484,0.3617109743994895,-0.0,24.400000000000002,0x0000,0x4056
13,0.4539130089999617,adis16470,0.0025,0.0,1.00125,0.024516625,0.0,9.8189083125,-0.031,-0.07999999999999999,0.041999999999999975,-0.0005410520681182421,-0.0013962634015954635,0.000733038285837618,0.06768081537823421,0.21527892451203953,-0.008845673297983934,0.0,-0.14306032570581104,24.5,0x0000,0x4056
14,0.4887526939999134,adis16470,-0.00375,0.00375,1.0050000000000001,-0.03677493749999999,0.03677493749999999,9.85568325,0.069,0.020000000000000018,0.142,0.0012042771838760874,0.0003490658503988662,0.002478367537831948,0.07295883309252753,0.2159319557598177,-0.0038984591859930464,0.21378922987711652,0.21378774162101022,24.3,0x0000,0x4056
15,0.5236243019999165,adis16470,-0.00125,0.00375,1.0,-0.0122583125,0.03677493749999999,9.80665,0.069,0.020000000000000018,0.041999999999999975,0.0012042771838760874,0.0003490658503988662,0.000733038285837618,0.07815483788424084,0.21372918383180856,-0.002433851649992917,0.2148581660301822,0.07161918351935888,24.700000000000003,0x0000,0x4056
16,0.558442543999945,adis16470,-0.0025,0.0025,1.0050000000000001,-0.024516625,0.024516625,9.85568325,-0.031,-0.07999999999999999,-0.05800000000000003,-0.0005410520681182421,-0.0013962634015954635,-0.0010122909661567116,0.07838449447318856,0.20957537447829178,-0.004453307539990889,0.14252652072657387,0.14252607975583273,24.700000000000003,0x0000,0x4056
17,0.593249582999988,adis16470,-0.00375,0.005,0.99875,-0.03677493749999999,0.04903325,9.7943916875,-0.031,0.020000000000000018,0.142,-0.0005410520681182421,0.0003490658503988662,0.002478367537831948,0.08149606657700585,0.2103685732103297,0.0004892972519919417,0.28683504810786925,0.21512437660030614,24.6,0x0000,0x4056
18,0.6281003219999093,adis16470,-0.005,0.0,1.0025,-0.04903325,0.0,9.831166624999998,-0.131,0.020000000000000018,-0.15800000000000003,-0.002286381320112572,0.0003490658503988662,-0.002757620218151041,0.07539198593315985,0.21255952184125776,-0.005017145896039909,0.0,0.2857621168765344,24.6,0x0000,0x4056
19,0.6629177310001069,adis16470,0.00375,0.0,1.0,0.03677493749999999,0.0,9.80665,-0.131,0.22000000000000006,-0.05800000000000003,-0.002286381320112572,0.003839724354387526,-0.0010122909661567116,0.06941431343661542,0.21151775748179744,-0.007036543786031434,0.0,-0.2148581660301822,24.5,0x0000,0x4056
20,0.6977254549999543,adis16470,-0.0025,0.00625,1.0,-0.024516625,0.0612915625,9.80665,-0.331,-0.18,-0.25800000000000006,-0.005777039824101231,-0.003141592653589793,-0.004502949470145371,0.06389698300643884,0.20401205022659827,-0.016016931676043913,0.35809395932357113,0.14323635282226646,24.400000000000002,0x0000,0x4056
21,0.732552362999968,adis16470,-0.005,0.00125,0.99375,-0.04903325,0.0122583125,9.7453584375,0.269,0.020000000000000018,0.142,0.004694935687864747,0.0003490658503988662,0.002478367537831948,0.07324154960185864,0.20637997898622923,-0.011071492280043477,0.07207012489938787,0.2882779909681424,24.6,0x0000,0x4056
22,0.7673579019999579,adis16470,0.0,0.0025,1.00125,0.0,0.024516625,9.8189083125,-0.031,-0.07999999999999999,0.142,-0.0005410520681182421,-0.0013962634015954635,0.002478367537831948,0.07358053959347574,0.19952364255369961,-0.0061291372660343965,0.14306032570581104,-0.0,24.5,0x0000,0x4056
23,0.8021772919998966,adis16470,-0.00625,0.0025,0.99875,-0.0612915625,0.024516625,9.7943916875,-0.031,-0.07999999999999999,0.041999999999999975,-0.0005410520681182421,-0.0013962634015954635,0.000733038285837618,0.07391948193827481,0.19997414376676,-0.00466671977804119,0.14341842264918372,0.35854100208608636,24.200000000000003,0x0000,0x4056
24,0.8369872749999558,adis16470,-0.0025,0.00125,0.99875,-0.024516625,0.0122583125,9.7943916875,-0.131,0.020000000000000018,-0.05800000000000003,-0.002286381320112572,0.0003490658503988662,-0.0010122909661567116,0.06940637315497335,0.199525302764696,-0.006685698792044626,0.0717093236505815,0.14341831032350197,24.6,0x0000,0x4056
25,0.8717983320000258,adis16470,-0.005,0.005,1.00625,-0.04903325,0.04903325,9.8679415625,-0.031,0.12000000000000002,-0.25800000000000006,-0.0005410520681182421,0.0020943951023931957,-0.004502949470145371,0.07265463222416946,0.2053224395519873,-0.015666927762079036,0.28469718244998127,0.2846936679284776,24.5,0x0000,0x4056
26,0.9066113149999637,adis16470,-0.00125,0.005,1.00125,-0.0122583125,0.04903325,9.8189083125,-0.23100000000000004,0.020000000000000018,-0.15800000000000003,-0.004031710572106902,0.0003490658503988662,-0.002757620218151041,0.06904292463812955,0.20332891540534473,-0.02116739945806924,0.28611886764947253,0.07152938245991898,24.400000000000002,0x0000,0x4056
27,0.9414697019999494,adis16470,-0.00125,0.00125,1.0025,-0.0122583125,0.0122583125,9.831166624999998,0.169,-0.07999999999999999,0.041999999999999975,0.002949606435870417,-0.0013962634015954635,0.000733038285837618,0.07486414001953212,0.197958257236207,-0.019703345650067178,0.07144108456385073,0.07144102902864945,24.200000000000003,0x0000,0x4056
28,0.9762645939999857,adis16470,-0.00375,0.00125,0.99875,-0.03677493749999999,0.0122583125,9.7943916875,0.069,-0.07999999999999999,-0.05800000000000003,0.0012042771838760874,-0.0013962634015954635,-0.0010122909661567116,0.07715386549858091,0.19557372082791397,-0.02172144184605671,0.0717093236505815,0.21512690386084704,24.5,0x0000,0x4056
29,1.011076077000098,adis16470,-0.0025,0.0,1.0025,-0.024516625,0.0,9.831166624999998,-0.131,0.020000000000000018,0.24200000000000002,-0.002286381320112572,0.0003490658503988662,0.004223696789826278,0.07114169706196778,0.19520218933990247,-0.013297076270053852,0.0,0.142881946987328,24.5,0x0000,0x4056
30,1.045881263999945,adis16470,0.0,0.0025,1.0,0.0,0.024516625,9.80665,-0.031,-0.18,0.041999999999999975,-0.0005410520681182421,-0.003141592653589793,0.000733038285837618,0.07152626454703229,0.18515851056629126,-0.011835258416050723,0.14323915036830656,-0.0,25.1,0x0000,0x4056
31,1.080683026000088,adis16470,-0.0025,0.00375,0.99875,-0.024516625,0.03677493749999999,9.7943916875,-0.031,0.12000000000000002,-0.15800000000000003,-0.0005410520681182421,0.0020943951023931957,-0.002757620218151041,0.07334100429755024,0.18841637144952575,-0.01733393096606327,0.21512707234805006,0.14341741172754915,24.6,0x0000,0x4056
32,1.115489991000004,adis16470,-0.00125,0.00125,0.995,-0.0122583125,0.0122583125,9.757616749999999,-0.031,0.12000000000000002,-0.05800000000000003,-0.0005410520681182421,0.0020943951023931957,-0.0010122909661567116,0.07225634030763772,0.1901809336612511,-0.0193527349360584,0.07197958463679698,0.07197952783628711,24.700000000000003,0x0000,0x4056
33,1.150302881000016,adis16470,-0.005,0.00375,0.99875,-0.04903325,0.03677493749999999,9.7943916875,-0.131,0.020000000000000018,-0.05800000000000003,-0.002286381320112572,0.0003490658503988662,-0.0010122909661567116,0.07064447138017628,0.19279630888327964,-0.021371884702062777,0.21512707234805006,0.28683302630260343,24.6,0x0000,0x4056
34,1.1852351489999364,adis16470,-0.00125,-0.00125,0.99875,-0.0122583125,-0.0122583125,9.7943916875,0.169,0.12000000000000002,-0.05800000000000003,0.002949606435870417,0.0020943951023931957,-0.0010122909661567116,0.07358293302280547,0.19448264205056667,-0.0233979756180643,-0.0717093236505815,0.07170926748747669,24.5,0x0000,0x4056
35,1.2201050500000292,adis16470,0.0,0.00125,1.00125,0.0,0.0122583125,9.8189083125,-0.031,0.12000000000000002,-0.05800000000000003,-0.0005410520681182421,0.0020943951023931957,-0.0010122909661567116,0.07248253341120714,0.1946936850983333,-0.02542042767205343,0.0715302743396037,-0.0,24.3,0x0000,0x4056
36,1.2549618769999142,adis16470,-0.00125,0.0025,1.0025,-0.0122583125,0.024516625,9.831166624999998,0.069,-0.07999999999999999,-0.25800000000000006,0.0012042771838760874,-0.0013962634015954635,-0.004502949470145371,0.07624753660537037,0.18949585772004215,-0.034413474848056506,0.142881946987328,0.07144086242382265,24.6,0x0000,0x4056
37,1.2897900959999333,adis16470,-0.0025,0.0025,1.00125,-0.024516625,0.024516625,9.8189083125,-0.031,0.12000000000000002,-0.15800000000000003,-0.0005410520681182421,0.0020943951023931957,-0.002757620218151041,0.07652571112453829,0.1926629365976808,-0.03991633329206119,0.14306032570581104,0.1430598797617985,24.6,0x0000,0x4056
38,1.3246456819999821,adis16470,-0.00125,0.005,1.00375,-0.0122583125,0.04903325,9.843424937499998,0.069,0.12000000000000002,-0.05800000000000003,0.0012042771838760874,0.0020943951023931957,-0.0010122909661567116,0.08306025428557404,0.19433571517966244,-0.04193795519205973,0.2854062546264104,0.07135123169691096,24.700000000000003,0x0000,0x4056
39,1.359467420000101,adis16470,-0.0025,0.0025,1.0,-0.024516625,0.024516625,9.80665,0.069,-0.07999999999999999,0.041999999999999975,0.0012042771838760874,-0.0013962634015954635,0.000733038285837618,0.08661847806317743,0.19058375075025752,-0.0404754422380543,0.14323915036830656,0.14323870274992495,24.5,0x0000,0x4056
40,1.3943229880001127,adis16470,0.0,0.00375,1.0,0.0,0.03677493749999999,9.80665,0.069,-0.07999999999999999,0.041999999999999975,0.0012042771838760874,-0.0013962634015954635,0.000733038285837618,0.09154020661546011,0.18403939771444938,-0.039011507584052696,0.2148581660301822,-0.0,24.3,0x0000,0x4056
41,1.4291680569999698,adis16470,-0.00375,0.00375,1.0025,-0.03677493749999999,0.03677493749999999,9.831166624999998,0.069,-0.07999999999999999,0.041999999999999975,0.0012042771838760874,-0.0013962634015954635,0.000733038285837618,0.0963520708496764,0.18191317656568684,-0.03754801624005181,0.21432236513420277,0.21432086571640446,24.1,0x0000,0x4056
42,1.4640329389999351,adis16470,0.0,0.0,0.9975,0.0,0.0,9.782133375,0.269,0.22000000000000006,0.041999999999999975,0.004694935687864747,0.003839724354387526,0.000733038285837618,0.10361609987155698,0.18579177361635194,-0.036083692750055935,0.0,-0.0,24.5,0x0000,0x4056
43,1.4988574349999908,adis16470,-0.005,0.0,1.0,-0.04903325,0.0,9.80665,-0.031,0.020000000000000018,0.24200000000000002,-0.0005410520681182421,0.0003490658503988662,0.004223696789826278,0.10048580968564415,0.18848802847116747,-0.027656164718042463,0.0,0.2864765102770745,24.3,0x0000,0x4056
44,1.5337074480000865,adis16470,0.00125,0.00125,1.0,0.0122583125,0.0122583125,9.80665,-0.031,0.020000000000000018,-0.05800000000000003,-0.0005410520681182421,0.0003490658503988662,-0.0010122909661567116,0.09884973931216375,0.183968938454208,-0.02967747411403575,0.07161968708944809,-0.0716196311366914,24.700000000000003,0x0000,0x4056
45,1.568518131000019,adis16470,-0.0025,0.00375,1.0,-0.024516625,0.03677493749999999,9.80665,-0.23100000000000004,0.020000000000000018,0.24200000000000002,-0.004031710572106902,0.0003490658503988662,0.004223696789826278,0.09328951998656865,0.18383660721298042,-0.021253347150040597,0.2148581660301822,0.14323814323284906,24.8,0x0000,0x4056
46,1.6033457940000062,adis16470,-0.00375,0.00125,0.99875,-0.03677493749999999,0.0122583125,9.7943916875,0.069,-0.07999999999999999,-0.15800000000000003,0.0012042771838760874,-0.0013962634015954635,-0.002757620218151041,0.09521297514161411,0.18173190986273172,-0.026756147134052798,0.0717093236505815,0.21512690386084704,24.6,0x0000,0x4056
47,1.6381969920000756,adis16470,-0.00625,0.00375,1.00125,-0.0612915625,0.03677493749999999,9.8189083125,0.069,-0.07999999999999999,0.142,0.0012042771838760874,-0.0013962634015954635,0.002478367537831948,0.09995714598146409,0.18251783311307074,-0.021807290224064718,0.21458993112939587,0.35764440397935404,24.5,0x0000,0x4056
48,1.673052116000008,adis16470,-0.00125,0.0,0.99875,-0.0122583125,0.0,9.7943916875,0.069,0.020000000000000018,-0.25800000000000006,0.0012042771838760874,0.0003490658503988662,-0.004502949470145371,0.10031490904865452,0.18098482407942088,-0.030799921762063653,0.0,0.0717093236505815,24.5,0x0000,0x4056
49,1.7078496330000235,adis16470,-0.005,0.00375,1.0,-0.04903325,0.03677493749999999,9.80665,-0.131,0.12000000000000002,-0.05800000000000003,-0.002286381320112572,0.0020943951023931957,-0.0010122909661567116,0.09813848795606649,0.18718678811310968,-0.032818169164063014,0.2148581660301822,0.28647449604392583,24.6,0x0000,0x4056
50,1.7426821100000325,adis16470,-0.00625,0.00375,0.99625,-0.0612915625,0.03677493749999999,9.769875062499999,-0.131,0.12000000000000002,-0.05800000000000003,-0.002286381320112572,0.0020943951023931957,-0.0010122909661567116,0.09601724629716547,0.19472815262864118,-0.034838460370062926,0.21566690934400543,0.35943928472969244,24.200000000000003,0x0000,0x4056
51,1.7775984889999563,adis16470,-0.00125,0.0,1.0025,-0.0122583125,0.0,9.831166624999998,0.069,0.020000000000000018,0.142,0.0012042771838760874,0.0003490658503988662,0.002478367537831948,0.0964579606460656,0.19294677627454637,-0.02988030572605572,0.0,0.07144108456385073,24.6,0x0000,0x4056
52,1.8124424089999138,adis16470,0.00125,0.00125,1.00125,0.0122583125,0.0122583125,9.8189083125,-0.131,0.020000000000000018,0.142,-0.002286381320112572,0.0003490658503988662,0.002478367537831948,0.09148617053146892,0.18834017323033367,-0.02493249791204749,0.0715302743396037,-0.071530218596146,24.8,0x0000,0x4056
53,1.8472538880000684,adis16470,-0.0025,0.00125,0.99875,-0.024516625,0.0122583125,9.7943916875,-0.031,0.020000000000000018,0.142,-0.0005410520681182421,0.0003490658503988662,0.002478367537831948,0.0900330625631092,0.18812403986299833,-0.019989275846038306,0.0717093236505815,0.14341831032350197,24.6,0x0000,0x4056
54,1.8820537760000207,adis16470,-0.00375,0.0025,1.0050000000000001,-0.03677493749999999,0.024516625,9.85568325,0.069,-0.18,0.041999999999999975,0.0012042771838760874,-0.003141592653589793,0.000733038285837618,0.09343609636620918,0.18249864006948505,-0.01852768290204409,0.14252652072657387,0.213788568426121,24.5,0x0000,0x4056
55,1.916868366000017,adis16470,-0.00375,0.00125,1.0,-0.03677493749999999,0.0122583125,9.80665,0.069,0.32000000000000006,-0.25800000000000006,0.0012042771838760874,0.005585053606381856,-0.004502949470145371,0.0953539370451441,0.19406371182042248,-0.027509871116082704,0.07161968708944809,0.21485799817401033,24.5,0x0000,0x4056
56,1.9516831959999763,adis16470,-0.00625,0.00625,1.00125,-0.0612915625,0.0612915625,9.8189083125,-0.031,-0.07999999999999999,-0.15800000000000003,-0.0005410520681182421,-0.0013962634015954635,-0.002757620218151041,0.09954212201519576,0.19460575380884831,-0.03301061425607628,0.3576469123176653,0.357639944841554,24.5,0x0000,0x4056
57,1.9864951009999459,adis16470,-0.00625,0.0025,1.00375,-0.0612915625,0.024516625,9.843424937499998,0.069,-0.18,-0.05800000000000003,0.0012042771838760874,-0.003141592653589793,-0.0010122909661567116,0.10275934212670816,0.1917079163788286,-0.03502970584807605,0.142704012546829,0.3567550519878277,24.5,0x0000,0x4056
58,2.0213042099999257,adis16470,-0.00375,0.0025,1.0025,-0.03677493749999999,0.024516625,9.831166624999998,-0.031,0.020000000000000018,-0.05800000000000003,-0.0005410520681182421,0.0003490658503988662,-0.0010122909661567116,0.10250429631783893,0.19284244873930123,-0.03704862877607917,0.142881946987328,0.2143216987224072,24.3,0x0000,0x4056
59,2.056134891000056,adis16470,-0.005,0.00375,1.00375,-0.04903325,0.03677493749999999,9.843424937499998,-0.23100000000000004,-0.07999999999999999,-0.05800000000000003,-0.004031710572106902,-0.0013962634015954635,-0.0010122909661567116,0.09685033338553933,0.19196295383020992,-0.03906881256606772,0.21405546554562488,0.285404262883962,24.400000000000002,0x0000,0x4056
60,2.0909505360000367,adis16470,-0.00125,0.00625,1.0,-0.0122583125,0.0612915625,9.80665,-0.131,0.020000000000000018,0.142,-0.002286381320112572,0.0003490658503988662,0.002478367537831948,0.09760557814924144,0.190238446436606,-0.0341249962300472,0.35809395932357113,0.07161828830987142,25.0,0x0000,0x4056
61,2.1257547939999313,adis16470,-0.0025,0.00375,1.00125,-0.024516625,0.03677493749999999,9.8189083125,-0.031,-0.28,-0.25800000000000006,-0.0005410520681182421,-0.004886921905584123,-0.004502949470145371,0.09888791409892468,0.1797445958650282,-0.04310447570204593,0.21458993112939587,0.14305932233764715,24.6,0x0000,0x4056
62,2.1605622360000325,adis16470,-0.0025,0.0025,1.0025,-0.024516625,0.024516625,9.831166624999998,-0.031,0.020000000000000018,0.041999999999999975,-0.0005410520681182421,0.0003490658503988662,0.000733038285837618,0.09871034579279162,0.17968955913991524,-0.041642564692044345,0.142881946987328,0.14288150270934405,24.6,0x0000,0x4056
63,2.195417319999933,adis16470,0.0025,0.0075,1.0,0.024516625,0.07354987499999999,9.80665,0.169,0.020000000000000018,0.44199999999999995,0.002949606435870417,0.0003490658503988662,0.007714355293814936,0.11110310495641233,0.17391423241643536,-0.026236454024109266,0.42971028940104355,-0.14323512195393542,24.5,0x0000,0x4056
64,2.2301949820000573,adis16470,-0.00375,0.005,0.99875,-0.03677493749999999,0.04903325,9.7943916875,-0.031,0.020000000000000018,-0.15800000000000003,-0.0005410520681182421,0.0003490658503988662,-0.002757620218151041,0.11356120573907658,0.17542007277131594,-0.03173128670013472,0.28683504810786925,0.21512437660030614,24.400000000000002,0x0000,0x4056
65,2.2650105489999532,adis16470,-0.00125,0.00625,0.99875,-0.0122583125,0.0612915625,9.7943916875,-0.23100000000000004,0.020000000000000018,0.142,-0.004031710572106902,0.0003490658503988662,0.002478367537831948,0.1105792971262218,0.17402821299854002,-0.026787489392138982,0.3585421253019974,0.071707919612549,24.400000000000002,0x0000,0x4056
66,2.299833282999998,adis16470,-0.005,0.005,1.0,-0.04903325,0.04903325,9.80665,-0.031,-0.07999999999999999,0.041999999999999975,-0.0005410520681182421,-0.0013962634015954635,0.000733038285837618,0.11303932223408361,0.17354699337873178,-0.025324928348145537,0.2864765102770745,0.2864729294475166,24.6,0x0000,0x4056
67,2.334675051999966,adis16470,0.0025,0.0025,1.00375,0.024516625,0.024516625,9.843424937499998,-0.131,0.020000000000000018,0.142,-0.002286381320112572,0.0003490658503988662,0.002478367537831948,0.1091596274252779,0.16790488113782553,-0.02037739459414485,0.142704012546829,-0.14270356992658498,24.3,0x0000,0x4056
68,2.3694886190000943,adis16470,-0.0025,0.0,1.0,-0.024516625,0.0,9.80665,-0.131,0.020000000000000018,0.142,-0.002286381320112572,0.0003490658503988662,0.002478367537831948,0.10250707864543215,0.1680939109852352,-0.015433878588144642,0.0,0.14323915036830656,25.200000000000003,0x0000,0x4056
69,2.40425854099999,adis16470,-0.0025,0.0,1.0,-0.024516625,0.0,9.80665,-0.031,-0.07999999999999999,-0.05800000000000003,-0.0005410520681182421,-0.0013962634015954635,-0.0010122909661567116,0.09940062793584202,0.16487085671049279,-0.017450531976147494,0.0,0.14323915036830656,24.6,0x0000,0x4056
70,2.439062812999964,adis16470,-0.00625,0.0025,0.99875,-0.0612915625,0.024516625,9.7943916875,0.069,0.12000000000000002,0.041999999999999975,0.0012042771838760874,0.0020943951023931957,0.000733038285837618,0.10263444620081817,0.17283723765402087,-0.015988754106141707,0.14341842264918372,0.35854100208608636,24.3,0x0000,0x4056
71,2.4738691219999964,adis16470,-0.0025,0.00375,1.0,-0.024516625,0.03677493749999999,9.80665,0.169,0.12000000000000002,-0.3580000000000001,0.002949606435870417,0.0020943951023931957,-0.006248278722139702,0.11064352609130541,0.1763384667671832,-0.028449379434098386,0.2148581660301822,0.14323814323284906,24.6,0x0000,0x4056
72,2.5086758380000447,adis16470,-0.00375,0.00375,1.0,-0.03677493749999999,0.03677493749999999,9.80665,0.069,-0.07999999999999999,0.24200000000000002,0.0012042771838760874,-0.0013962634015954635,0.004223696789826278,0.11508144902600621,0.1743799840042117,-0.02002615416208671,0.2148581660301822,0.21485665533879808,24.5,0x0000,0x4056
73,2.5434914229999777,adis16470,-0.0025,0.0025,1.00125,-0.024516625,0.024516625,9.8189083125,-0.031,0.32000000000000006,-0.05800000000000003,-0.0005410520681182421,0.005585053606381856,-0.0010122909661567116,0.11458332288978082,0.18467181334977892,-0.022045469924089574,0.14306032570581104,0.1430598797617985,24.5,0x0000,0x4056
74,2.578307675999895,adis16470,-0.0025,-0.00125,1.00125,-0.024516625,-0.0122583125,9.8189083125,0.169,0.12000000000000002,-0.3580000000000001,0.002949606435870417,0.0020943951023931957,-0.006248278722139702,0.11662730336439166,0.18793396178317065,-0.03450965520408643,-0.0715302743396037,0.14306021421941692,24.700000000000003,0x0000,0x4056
75,2.6131193539999913,adis16470,-0.00125,0.0025,0.9975,-0.0122583125,0.024516625,9.782133375,-0.23100000000000004,0.020000000000000018,0.041999999999999975,-0.004031710572106902,0.0003490658503988662,0.000733038285837618,0.10928605659096594,0.18629357027084714,-0.03304756548409348,0.14359814423120423,0.07179895936716037,24.6,0x0000,0x4056
76,2.6479278849999446,adis16470,-0.005,0.005,0.99625,-0.04903325,0.04903325,9.769875062499999,-0.031,0.12000000000000002,0.041999999999999975,-0.0005410520681182421,0.0020943951023931957,0.000733038285837618,0.11179395156984936,0.19241219520304242,-0.03158561108809234,0.2875548228571788,0.2875512014404519,24.5,0x0000,0x4056
77,2.682780874999935,adis16470,-0.005,0.005,1.0,-0.04903325,0.04903325,9.80665,0.069,0.020000000000000018,-0.05800000000000003,0.0012042771838760874,0.0003490658503988662,-0.0010122909661567116,0.1176443682164636,0.19497653031473472,-0.03360708990210067,0.2864765102770745,0.2864729294475166,24.3,0x0000,0x4056
78,2.7175951649999206,adis16470,-0.00125,0.00125,1.00125,-0.0122583125,0.0122583125,9.8189083125,0.169,-0.07999999999999999,0.34199999999999997,0.002949606435870417,-0.0013962634015954635,0.0059690260418206065,0.12248802590193966,0.18977816523396612,-0.021700609220114603,0.0715302743396037,0.071530218596146,24.5,0x0000,0x4056
79,2.752402009999969,adis16470,-0.0025,0.00375,0.9975,-0.024516625,0.03677493749999999,9.782133375,0.069,0.020000000000000018,0.041999999999999975,0.0012042771838760874,0.0003490658503988662,0.000733038285837618,0.12669983607778315,0.18953675832857483,-0.020238722486114132,0.21539665260707627,0.1435971295043908,24.700000000000003,0x0000,0x4056
80,2.7872097629999644,adis16470,-0.0025,0.0025,0.9975,-0.024516625,0.024516625,9.782133375,0.069,0.020000000000000018,0.041999999999999975,0.0012042771838760874,0.0003490658503988662,0.000733038285837618,0.12939150371587377,0.18930020933838104,-0.01877679610411277,0.14359814423120423,0.14359769323885363,24.6,0x0000,0x4056
81,2.822018608999997,adis16470,-0.005,-0.00125,1.00125,-0.04903325,-0.0122583125,9.8189083125,-0.23100000000000004,0.020000000000000018,-0.05800000000000003,-0.004031710572106902,0.0003490658503988662,-0.0010122909661567116,0.11749305019972879,0.1919188306820301,-0.020795706968111595,-0.0715302743396037,0.2861186446808545,24.5,0x0000,0x4056
82,2.856825084000093,adis16470,0.00125,0.0025,1.00125,0.0122583125,0.024516625,9.8189083125,-0.131,0.020000000000000018,0.142,-0.002286381320112572,0.0003490658503988662,0.002478367537831948,0.11353594032098868,0.18733205997065563,-0.015853187376131776,0.14306032570581104,-0.07153005136655487,25.0,0x0000,0x4056
83,2.8916297999999188,adis16470,-0.00375,0.0025,1.00125,-0.03677493749999999,0.024516625,9.8189083125,-0.131,0.020000000000000018,0.041999999999999975,-0.002286381320112572,0.0003490658503988662,0.000733038285837618,0.10965820102782169,0.18855937607681483,-0.014391390102130648,0.14306032570581104,0.21458926221858984,24.700000000000003,0x0000,0x4056
84,2.926439144999904,adis16470,0.0,0.00125,1.00125,0.0,0.0122583125,9.8189083125,-0.031,0.12000000000000002,0.142,-0.0005410520681182421,0.0020943951023931957,0.002478367537831948,0.10783813401573698,0.1888817697616799,-0.009448460414129008,0.0715302743396037,-0.0,24.700000000000003,0x0000,0x4056
85,2.961214845000086,adis16470,-0.00375,0.00125,1.0,-0.03677493749999999,0.0122583125,9.80665,0.169,0.22000000000000006,0.24200000000000002,0.002949606435870417,0.003839724354387526,0.004223696789826278,0.11287331038329085,0.19689892727275207,-0.0010327499681003095,0.07161968708944809,0.21485799817401033,24.6,0x0000,0x4056
86,2.9959818610000184,adis16470,-0.00125,0.00625,0.99875,-0.0122583125,0.0612915625,9.7943916875,-0.131,0.12000000000000002,-0.05800000000000003,-0.002286381320112572,0.0020943951023931957,-0.0010122909661567116,0.1133232924175255,0.19848371255234754,-0.003049239042100075,0.3585421253019974,0.071707919612549,24.700000000000003,0x0000,0x4056
87,3.030791835999935,adis16470,-0.0025,0.00375,1.00375,-0.024516625,0.03677493749999999,9.843424937499998,-0.031,-0.18,0.142,-0.0005410520681182421,-0.003141592653589793,0.002478367537831948,0.11428040883959004,0.19122761904445673,0.0018937774078880598,0.21405546554562488,0.1427030166570717,24.700000000000003,0x0000,0x4056
88,3.0656177349999325,adis16470,0.0,0.005,1.00125,0.0,0.04903325,9.8189083125,-0.031,-0.07999999999999999,-0.05800000000000003,-0.0005410520681182421,-0.0013962634015954635,-0.0010122909661567116,0.11665916100664422,0.18467270018835866,-0.00012613656611855416,0.28611886764947253,-0.0,24.400000000000002,0x0000,0x4056
89,3.100428598999997,adis16470,-0.00125,0.0025,1.0025,-0.0122583125,0.024516625,9.831166624999998,-0.131,0.12000000000000002,-0.25800000000000006,-0.002286381320112572,0.0020943951023931957,-0.004502949470145371,0.1127146194453964,0.18650180140026934,-0.009107296392121577,0.142881946987328,0.07144086242382265,24.3,0x0000,0x4056
90,3.1352421849999246,adis16470,-0.0025,0.00125,1.00625,-0.024516625,0.0122583125,9.8679415625,0.169,0.020000000000000018,-0.15800000000000003,0.002949606435870417,0.0003490658503988662,-0.002757620218151041,0.11764965304639388,0.1863010992115497,-0.014607845824115964,0.07117484477156402,0.14234936004432253,24.5,0x0000,0x4056
91,3.170077861999971,adis16470,0.0,0.005,1.00125,0.0,0.04903325,9.8189083125,-0.23100000000000004,-0.18,-0.05800000000000003,-0.004031710572106902,-0.003141592653589793,-0.0010122909661567116,0.11313286546951845,0.1764300082385366,-0.016628333360110072,0.28611886764947253,-0.0,24.400000000000002,0x0000,0x4056
92,3.204909756999996,adis16470,-0.00375,0.00125,1.0050000000000001,-0.03677493749999999,0.0122583125,9.85568325,-0.031,-0.07999999999999999,-0.25800000000000006,-0.0005410520681182421,-0.0013962634015954635,-0.004502949470145371,0.1112372865515601,0.17444637898803894,-0.025614928730119203,0.07126337060665441,0.21378906451379207,24.400000000000002,0x0000,0x4056
93,3.239716561000023,adis16470,0.0,0.00375,1.0,0.0,0.03677493749999999,9.80665,0.069,-0.18,-0.05800000000000003,0.0012042771838760874,-0.003141592653589793,-0.0010122909661567116,0.11566332399881687,0.16481757351866685,-0.02763370944212292,0.2148581660301822,-0.0,24.6,0x0000,0x4056
94,3.2745223839999653,adis16470,-0.00625,0.00375,1.00625,-0.0612915625,0.03677493749999999,9.8679415625,-0.031,0.020000000000000018,-0.15800000000000003,-0.0005410520681182421,0.0003490658503988662,-0.002757620218151041,0.11656312972919204,0.1693207633688573,-0.03313302947611382,0.21352365565448742,0.35586735948824566,24.400000000000002,0x0000,0x4056
95,3.3093331519999083,adis16470,-0.005,0.0025,0.99625,-0.04903325,0.024516625,9.769875062499999,0.069,0.22000000000000006,0.041999999999999975,0.0012042771838760874,0.003839724354387526,0.000733038285837618,0.11946134010482015,0.17919063600928492,-0.03167097566611356,0.14377831680557537,0.2875539174901698,24.6,0x0000,0x4056
96,3.3441354940000565,adis16470,-0.005,0.0,1.0,-0.04903325,0.0,9.80665,-0.23100000000000004,-0.07999999999999999,0.142,-0.004031710572106902,-0.0013962634015954635,0.002478367537831948,0.10919354236863293,0.17860784408023697,-0.026729032594106777,0.0,0.2864765102770745,24.700000000000003,0x0000,0x4056
97,3.3789434650000203,adis16470,-0.00125,0.00125,1.0025,-0.0122583125,0.0122583125,9.831166624999998,-0.031,0.020000000000000018,0.041999999999999975,-0.0005410520681182421,0.0003490658503988662,0.000733038285837618,0.10738102875484112,0.17714674291320276,-0.025267100164112075,0.07144108456385073,0.07144102902864945,24.6,0x0000,0x4056
98,3.4138008580000587,adis16470,-0.0025,0.0025,0.99875,-0.024516625,0.024516625,9.7943916875,-0.331,-0.07999999999999999,0.142,-0.005777039824101231,-0.0013962634015954635,0.002478367537831948,0.09679469948520751,0.1737393392082994,-0.020317334596111875,0.14341842264918372,0.1434179733480403,24.5,0x0000,0x4056
99,3.4486355680000997,adis16470,-0.00125,0.0025,1.0,-0.0122583125,0.024516625,9.80665,-0.031,0.22000000000000006,0.041999999999999975,-0.0005410520681182421,0.003839724354387526,0.000733038285837618,0.09666531113713017,0.17920729718851275,-0.018854278330112818,0.14323915036830656,0.07161946327920818,24.5,0x0000,0x4056
100,3.483455964000086,adis16470,-0.0025,0.0,0.99875,-0.024516625,0.0,9.7943916875,-0.131,0.12000000000000002,-0.05800000000000003,-0.002286381320112572,0.0020943951023931957,-0.0010122909661567116,0.09026175297577302,0.18258640696973952,-0.020873865590119393,0.0,0.14341842264918372,24.6,0x0000,0x4056
101,3.5183686489999673,adis16470,-0.0025,0.00625,1.0050000000000001,-0.024516625,0.0612915625,9.85568325,-0.031,-0.07999999999999999,0.34199999999999997,-0.0005410520681182421,-0.0013962634015954635,0.0059690260418206065,0.09452211716552783,0.1790479938192759,-0.008933702012116655,0.35631244338452583,0.142523764726591,24.400000000000002,0x0000,0x4056
102,3.553240447999997,adis16470,-0.00125,0.005,1.0,-0.0122583125,0.04903325,9.80665,-0.331,0.12000000000000002,-0.4580000000000001,-0.005777039824101231,0.0020943951023931957,-0.00799360797413403,0.08704952071114236,0.18100032252329615,-0.024904943818055122,0.2864765102770745,0.07161879186107749,24.400000000000002,0x0000,0x4056
103,3.588053678000051,adis16470,-0.0025,0.0025,1.00375,-0.024516625,0.024516625,9.843424937499998,-0.331,0.020000000000000018,-0.05800000000000003,-0.005777039824101231,0.0003490658503988662,-0.0010122909661567116,0.07686993684545848,0.18091672425096297,-0.026924103676058273,0.142704012546829,0.14270356992658498,24.6,0x0000,0x4056
104,3.6228980910000246,adis16470,-0.0025,0.0025,0.99875,-0.024516625,0.024516625,9.7943916875,0.069,-0.18,-0.05800000000000003,0.0012042771838760874,-0.003141592653589793,-0.0010122909661567116,0.08055709570873369,0.17402016884890267,-0.028945088156058882,0.14341842264918372,0.1434179733480403,24.700000000000003,0x0000,0x4056
105,3.6577097280001,adis16470,-0.0025,0.00375,1.00125,-0.024516625,0.03677493749999999,9.8189083125,-0.031,-0.07999999999999999,0.041999999999999975,-0.0005410520681182421,-0.0013962634015954635,0.000733038285837618,0.08218017992816658,0.17067173259227664,-0.027483006374058386,0.21458993112939587,0.14305932233764715,24.6,0x0000,0x4056
106,3.692518496000048,adis16470,-0.0025,0.00375,1.0,-0.024516625,0.03677493749999999,9.80665,-0.23100000000000004,-0.07999999999999999,-0.15800000000000003,-0.004031710572106902,-0.0013962634015954635,-0.002757620218151041,0.07695373505160465,0.16739405488349424,-0.032982788716046,0.2148581660301822,0.14323814323284906,24.5,0x0000,0x4056
107,3.7272952840000926,adis16470,-0.0025,0.0025,1.00625,-0.024516625,0.024516625,9.8679415625,0.069,-0.07999999999999999,0.041999999999999975,0.0012042771838760874,-0.0013962634015954635,0.000733038285837618,0.08061325743745856,0.16416665272797148,-0.03152216282204301,0.14234946987705996,0.1423490305476356,24.700000000000003,0x0000,0x4056
108,3.762103161999903,adis16470,-0.005,-0.00125,1.0025,-0.04903325,-0.0122583125,9.831166624999998,0.169,0.020000000000000018,-0.05800000000000003,0.002949606435870417,0.0003490658503988662,-0.0010122909661567116,0.083337042242682,0.16728079089902903,-0.033541016556039374,-0.07144108456385073,0.2857618947409096,24.700000000000003,0x0000,0x4056
109,3.7969140959999095,adis16470,0.0,0.0025,1.0,0.0,0.024516625,9.80665,-0.031,0.020000000000000018,-0.15800000000000003,-0.0005410520681182421,0.0003490658503988662,-0.002757620218151041,0.08347752823027428,0.1646174693874486,-0.0390411441280404,0.14323915036830656,-0.0,24.5,0x0000,0x4056
110,3.8317311040000277,adis16470,0.0,0.00375,1.00125,0.0,0.03677493749999999,9.8189083125,-0.131,0.12000000000000002,0.142,-0.002286381320112572,0.0020943951023931957,0.002478367537831948,0.08162994274007443,0.1654196240133017,-0.034097100166037876,0.21458993112939587,-0.0,24.6,0x0000,0x4056
111,3.866538556000023,adis16470,-0.005,0.0,1.0050000000000001,-0.04903325,0.0,9.85568325,0.069,-0.07999999999999999,-0.05800000000000003,0.0012042771838760874,-0.0013962634015954635,-0.0010122909661567116,0.08235101378175085,0.16508336445111466,-0.03611592379803608,0.0,0.28505127758382637,24.3,0x0000,0x4056
112,3.9013447679999445,adis16470,-0.00375,0.00375,1.0025,-0.03677493749999999,0.03677493749999999,9.831166624999998,-0.031,0.020000000000000018,-0.05800000000000003,-0.0005410520681182421,0.0003490658503988662,-0.0010122909661567116,0.08393302863507648,0.16675031587882266,-0.038134683050042556,0.21432236513420277,0.21432086571640446,24.6,0x0000,0x4056
113,3.936218512000096,adis16470,-0.00125,0.0,0.9975,-0.0122583125,0.0,9.782133375,0.169,-0.18,0.142,0.002949606435870417,-0.003141592653589793,0.002478367537831948,0.08803020954833726,0.15869950942733171,-0.033182566814040575,0.0,0.07179918486439799,24.700000000000003,0x0000,0x4056
114,3.9710550360000525,adis16470,-0.00125,0.0,1.00125,-0.0122583125,0.0,9.8189083125,0.269,0.12000000000000002,0.041999999999999975,0.004694935687864747,0.0020943951023931957,0.000733038285837618,0.09545316605330234,0.1610528804263646,-0.03171943977804506,0.0,0.0715302743396037,24.6,0x0000,0x4056
115,4.00586145200009,adis16470,-0.005,0.00375,1.0025,-0.04903325,0.03677493749999999,9.831166624999998,-0.031,-0.18,-0.15800000000000003,-0.0005410520681182421,-0.003141592653589793,-0.002757620218151041,0.09677313169406,0.15740717674052654,-0.03721885050404683,0.21432236513420277,0.2857601176745602,24.6,0x0000,0x4056
116,4.040693365999914,adis16470,-0.0025,0.00625,0.99625,-0.024516625,0.0612915625,9.769875062499999,-0.23100000000000004,0.020000000000000018,0.041999999999999975,-0.004031710572106902,0.0003490658503988662,0.000733038285837618,0.09414125698931314,0.1578172484711245,-0.035755910116044676,0.35944183102329696,0.14377548755037428,24.5,0x0000,0x4056
117,4.075558536000017,adis16470,-0.00125,0.005,1.00125,-0.0122583125,0.04903325,9.8189083125,-0.031,0.020000000000000018,0.34199999999999997,-0.0005410520681182421,0.0003490658503988662,0.0059690260418206065,0.09692160363663739,0.1567748495804997,-0.023832002824056533,0.28611886764947253,0.07152938245991898,24.900000000000002,0x0000,0x4056
118,4.110393875,adis16470,-0.005,0.005,0.99375,-0.04903325,0.04903325,9.7453584375,-0.131,-0.07999999999999999,0.041999999999999975,-0.002286381320112572,-0.0013962634015954635,0.000733038285837618,0.09627658462365819,0.15667375921702384,-0.02236892169405303,0.2882782190232128,0.2882745702070331,24.5,0x0000,0x4056
119,4.145230992000052,adis16470,-0.00375,0.00375,0.9975,-0.03677493749999999,0.03677493749999999,9.782133375,-0.031,0.020000000000000018,-0.05800000000000003,-0.0005410520681182421,0.0003490658503988662,-0.0010122909661567116,0.09760063436886497,0.15853099413646052,-0.02438947448005604,0.21539665260707627,0.21539513052880688,24.400000000000002,0x0000,0x4056
120,4.180218615000058,adis16470,-0.00375,0.0025,0.99875,-0.03677493749999999,0.024516625,9.7943916875,-0.031,0.020000000000000018,-0.05800000000000003,-0.0005410520681182421,0.0003490658503988662,-0.0010122909661567116,0.09745404986405068,0.160348670138164,-0.026418787702057335,0.14341842264918372,0.21512639840161327,24.5,0x0000,0x4056
121,4.215062782999894,adis16470,-0.005,0.00375,0.9975,-0.04903325,0.03677493749999999,9.782133375,0.169,-0.07999999999999999,-0.05800000000000003,0.002949606435870417,-0.0013962634015954635,-0.0010122909661567116,0.10558373174365189,0.16015379207404556,-0.028439727986050576,0.21539665260707627,0.2871924550917851,24.5,0x0000,0x4056
122,4.249881156999891,adis16470,-0.00375,0.00125,1.0,-0.03677493749999999,0.0122583125,9.80665,0.069,0.12000000000000002,0.041999999999999975,0.0012042771838760874,0.0020943951023931957,0.000733038285837618,0.10725885679074151,0.1653424952224339,-0.026977364048054488,0.07161968708944809,0.21485799817401033,24.5,0x0000,0x4056
123,4.2846882159999495,adis16470,-0.0075,0.00125,1.0025,-0.07354987499999999,0.0122583125,9.831166624999998,-0.131,0.020000000000000018,-0.05800000000000003,-0.002286381320112572,0.0003490658503988662,-0.0010122909661567116,0.102073982922728,0.1712906298613683,-0.028996168134061584,0.07144108456385073,0.4286383995090332,24.6,0x0000,0x4056
124,4.319510607999973,adis16470,-0.0025,0.00375,0.9975,-0.024516625,0.03677493749999999,9.782133375,-0.031,0.12000000000000002,-0.05800000000000003,-0.0005410520681182421,0.0020943951023931957,-0.0010122909661567116,0.10328253037655809,0.1748318796214166,-0.0310158700600556,0.21539665260707627,0.1435971295043908,24.6,0x0000,0x4056
125,4.354329351999922,adis16470,-0.00375,0.00125,0.99875,-0.03677493749999999,0.0122583125,9.7943916875,-0.031,0.020000000000000018,-0.15800000000000003,-0.0005410520681182421,0.0003490658503988662,-0.002757620218151041,0.1015932727993132,0.1763202274886087,-0.036517231612083506,0.0717093236505815,0.21512690386084704,24.400000000000002,0x0000,0x4056
126,4.389183926999976,adis16470,-0.00375,0.005,1.00125,-0.03677493749999999,0.04903325,9.8189083125,-0.131,0.020000000000000018,-0.25800000000000006,-0.002286381320112572,0.0003490658503988662,-0.004502949470145371,0.10080915204699391,0.17776871807210792,-0.045509716606048314,0.28611886764947253,0.21458725552370286,24.5,0x0000,0x4056
127,4.423987060999934,adis16470,-0.0025,0.00375,1.00125,-0.024516625,0.03677493749999999,9.8189083125,0.169,0.020000000000000018,-0.25800000000000006,0.002949606435870417,0.0003490658503988662,-0.004502949470145371,0.108848853572636,0.1777566705058204,-0.054488910988070204,0.21458993112939587,0.14305932233764715,24.400000000000002,0x0000,0x4056
128,4.458796954000036,adis16470,-0.00375,0.005,0.99875,-0.03677493749999999,0.04903325,9.7943916875,-0.031,0.12000000000000002,0.24200000000000002,-0.0005410520681182421,0.0020943951023931957,0.004223696789826278,0.11135105349121839,0.18259766581011894,-0.046064921480052035,0.28683504810786925,0.21512437660030614,24.6,0x0000,0x4056
129,4.4936067169999205,adis16470,-0.005,0.005,1.0025,-0.04903325,0.04903325,9.831166624999998,-0.23100000000000004,0.020000000000000018,-0.25800000000000006,-0.004031710572106902,0.0003490658503988662,-0.004502949470145371,0.10695904468585919,0.18534315475128757,-0.055045835690012736,0.2857621168765344,0.2857585627687001,24.5,0x0000,0x4056
130,4.528442440999925,adis16470,-0.0025,0.00375,0.9975,-0.024516625,0.03677493749999999,9.782133375,-0.131,-0.07999999999999999,0.041999999999999975,-0.002286381320112572,-0.0013962634015954635,0.000733038285837618,0.10465556284685146,0.18177709898074226,-0.053582727512008786,0.21539665260707627,0.1435971295043908,24.700000000000003,0x0000,0x4056
131,4.5632602220000535,adis16470,-0.00125,0.0025,0.99875,-0.0122583125,0.024516625,9.7943916875,-0.131,0.12000000000000002,0.24200000000000002,-0.002286381320112572,0.0020943951023931957,0.004223696789826278,0.1009609251290826,0.18367029920750236,-0.04515684677401727,0.14341842264918372,0.07170909899895411,24.6,0x0000,0x4056
132,4.5980544680001,adis16470,-0.00375,0.00375,1.00125,-0.03677493749999999,0.03677493749999999,9.8189083125,-0.031,0.12000000000000002,-0.15800000000000003,-0.0005410520681182421,0.0020943951023931957,-0.002757620218151041,0.10217645833411099,0.1883804562547217,-0.05065432579200628,0.21458993112939587,0.2145884260888787,24.3,0x0000,0x4056
133,4.63286495300008,adis16470,-0.005,0.00625,1.00375,-0.04903325,0.0612915625,9.843424937499998,-0.031,0.020000000000000018,-0.15800000000000003,-0.0005410520681182421,0.0003490658503988662,-0.002757620218151041,0.10621051089685275,0.191003146372259,-0.056154376734027345,0.3567561585024013,0.2854007221114559,24.6,0x0000,0x4056
134,4.667667550000033,adis16470,-0.00375,0.005,1.00125,-0.03677493749999999,0.04903325,9.8189083125,0.169,-0.07999999999999999,0.041999999999999975,0.002949606435870417,-0.0013962634015954635,0.000733038285837618,0.11557268100025292,0.18874630644009366,-0.05469266845803045,0.28611886764947253,0.21458725552370286,24.6,0x0000,0x4056
135,4.702474166000002,adis16470,-0.0025,0.0025,0.99875,-0.024516625,0.024516625,9.7943916875,-0.131,0.020000000000000018,-0.15800000000000003,-0.002286381320112572,0.0003490658503988662,-0.002757620218151041,0.11166111772108737,0.18852195017705325,-0.060192119632035565,0.14341842264918372,0.1434179733480403,24.3,0x0000,0x4056
136,4.737284003000013,adis16470,-0.00375,0.005,1.00375,-0.03677493749999999,0.04903325,9.843424937499998,0.069,0.020000000000000018,0.041999999999999975,0.0012042771838760874,0.0003490658503988662,0.000733038285837618,0.11748986035235284,0.18971483980394832,-0.05873010727603619,0.2854062546264104,0.21405280988181974,24.200000000000003,0x0000,0x4056
137,4.772091433000014,adis16470,-0.0025,0.00125,0.99875,-0.024516625,0.0122583125,9.7943916875,-0.031,-0.07999999999999999,-0.15800000000000003,-0.0005410520681182421,-0.0013962634015954635,-0.002757620218151041,0.1155167993176966,0.18606000521273725,-0.06422968421804048,0.0717093236505815,0.14341831032350197,24.6,0x0000,0x4056
138,4.80689140100003,adis16470,-0.0025,0.0025,1.0025,-0.024516625,0.024516625,9.831166624999998,0.069,0.12000000000000002,-0.05800000000000003,0.0012042771838760874,0.0020943951023931957,-0.0010122909661567116,0.1184172748224685,0.1892889091650681,-0.06624808126003986,0.142881946987328,0.14288150270934405,24.6,0x0000,0x4056
139,4.841699867999978,adis16470,-0.00375,0.0025,0.99625,-0.03677493749999999,0.024516625,9.769875062499999,-0.23100000000000004,-0.07999999999999999,0.34199999999999997,-0.004031710572106902,-0.0013962634015954635,0.0059690260418206065,0.1110445549026824,0.18708747177519613,-0.05434358554605765,0.14377831680557537,0.21566623031126594,24.6,0x0000,0x4056
140,4.876502612999957,adis16470,0.00125,0.00375,1.0,0.0122583125,0.03677493749999999,9.80665,-0.031,0.12000000000000002,-0.25800000000000006,-0.0005410520681182421,0.0020943951023931957,-0.004502949470145371,0.11206351973213304,0.18600614148130257,-0.06332269375605225,0.2148581660301822,-0.07161918351935888,24.400000000000002,0x0000,0x4056
141,4.911289062999913,adis16470,-0.005,0.00375,1.00875,-0.04903325,0.03677493749999999,9.892458187499999,-0.23100000000000004,0.020000000000000018,-0.15800000000000003,-0.004031710572106902,0.0003490658503988662,-0.002757620218151041,0.10620717811950281,0.18864762669452317,-0.06881895585804947,0.21299448171142213,0.28398966252235053,24.400000000000002,0x0000,0x4056
142,4.946053773999893,adis16470,0.0,0.0,0.99875,0.0,0.0,9.7943916875,0.069,0.12000000000000002,-0.05800000000000003,0.0012042771838760874,0.0020943951023931957,-0.0010122909661567116,0.10643382181300247,0.18896299982304962,-0.0708353069500578,0.0,-0.0,24.400000000000002,0x0000,0x4056
143,4.9808533529999295,adis16470,-0.0025,0.0025,0.99875,-0.024516625,0.024516625,9.7943916875,0.269,0.020000000000000018,0.041999999999999975,0.004694935687864747,0.0003490658503988662,0.000733038285837618,0.11634738385444283,0.18873417141434623,-0.06937372383406469,0.14341842264918372,0.1434179733480403,24.3,0x0000,0x4056
144,5.015658987000052,adis16470,-0.00375,0.005,1.00125,-0.03677493749999999,0.04903325,9.8189083125,0.069,0.12000000000000002,-0.25800000000000006,0.0012042771838760874,0.0020943951023931957,-0.004502949470145371,0.12209637171859421,0.1933443777717521,-0.07835358205010576,0.28611886764947253,0.21458725552370286,24.400000000000002,0x0000,0x4056
145,5.050490860000082,adis16470,-0.0025,0.00375,0.9975,-0.024516625,0.03677493749999999,9.782133375,-0.131,-0.07999999999999999,-0.05800000000000003,-0.002286381320112572,-0.0013962634015954635,-0.0010122909661567116,0.11949063066942474,0.18961859514720542,-0.08037384460410536,0.21539665260707627,0.1435971295043908,24.5,0x0000,0x4056
146,5.08538148699995,adis16470,-0.00125,0.0025,1.0,-0.0122583125,0.024516625,9.80665,-0.331,0.020000000000000018,-0.05800000000000003,-0.005777039824101231,0.0003490658503988662,-0.0010122909661567116,0.10864780932012465,0.18794246699584413,-0.08239749563410138,0.14323915036830656,0.07161946327920818,24.700000000000003,0x0000,0x4056
147,5.120247615999915,adis16470,-0.0025,0.005,1.00125,-0.024516625,0.04903325,9.8189083125,0.069,0.12000000000000002,0.24200000000000002,0.0012042771838760874,0.0020943951023931957,0.004223696789826278,0.11455487941447105,0.19114504749982195,-0.07395988781810335,0.28611886764947253,0.14305854195478193,24.5,0x0000,0x4056
148,5.155080100000077,adis16470,-0.00375,0.00375,1.00375,-0.03677493749999999,0.03677493749999999,9.843424937499998,0.169,0.020000000000000018,0.142,0.002949606435870417,0.0003490658503988662,0.002478367537831948,0.12231385309949562,0.19228594337627714,-0.06901366997810207,0.21405546554562488,0.21405397172257223,24.3,0x0000,0x4056
149,5.190089012000044,adis16470,0.00375,0.005,1.00375,0.03677493749999999,0.04903325,9.843424937499998,-0.031,-0.07999999999999999,-0.3580000000000001,-0.0005410520681182421,-0.0013962634015954635,-0.006248278722139702,0.12451211744159364,0.1814144362119145,-0.08154701298210527,0.2854062546264104,-0.21405280988181974,24.6,0x0000,0x4056
150,5.224982819999923,adis16470,0.00125,-0.00125,0.995,0.0122583125,-0.0122583125,9.757616749999999,-0.031,-0.07999999999999999,0.142,-0.0005410520681182421,-0.0013962634015954635,0.002478367537831948,0.11952221738140918,0.17361090268935914,-0.07659212902412098,-0.07197958463679698,-0.07197952783628711,24.3,0x0000,0x4056
151,5.259889313000031,adis16470,-0.0025,0.00125,0.9975,-0.024516625,0.0122583125,9.782133375,0.169,0.22000000000000006,0.041999999999999975,0.002949606435870417,0.003839724354387526,0.000733038285837618,0.12434895171793292,0.18053646122445752,-0.0751260609801149,0.07179918486439799,0.1435980314827182,24.5,0x0000,0x4056
152,5.294747068000106,adis16470,-0.00125,0.0025,1.0,-0.0122583125,0.024516625,9.80665,0.069,0.22000000000000006,0.041999999999999975,0.0012042771838760874,0.003839724354387526,0.000733038285837618,0.12708383336493873,0.18587344138554715,-0.07366203758011595,0.14323915036830656,0.07161946327920818,24.5,0x0000,0x4056
153,5.329565215000002,adis16470,-0.005,0.00375,1.00375,-0.04903325,0.03677493749999999,9.843424937499998,0.169,-0.07999999999999999,0.041999999999999975,0.002949606435870417,-0.0013962634015954635,0.000733038285837618,0.13458982300291086,0.18513432669392565,-0.07219968162212143,0.21405546554562488,0.285404262883962,24.5,0x0000,0x4056
154,5.364376493000009,adis16470,-0.0025,0.00625,1.0025,-0.024516625,0.0612915625,9.831166624999998,-0.131,0.020000000000000018,-0.05800000000000003,-0.002286381320112572,0.0003490658503988662,-0.0010122909661567116,0.13457297671438231,0.18497152424280958,-0.07421873464413346,0.35720098009881457,0.14287917031791908,24.700000000000003,0x0000,0x4056
155,5.399155439999959,adis16470,-0.005,0.00375,1.0,-0.04903325,0.03677493749999999,9.80665,-0.23100000000000004,0.020000000000000018,0.142,-0.004031710572106902,0.0003490658503988662,0.002478367537831948,0.1283054267800757,0.1876832506676304,-0.06928012686814435,0.2148581660301822,0.28647449604392583,24.6,0x0000,0x4056
156,5.434007547999954,adis16470,-0.00375,0.00125,0.9975,-0.03677493749999999,0.0122583125,9.782133375,-0.031,-0.07999999999999999,0.041999999999999975,-0.0005410520681182421,-0.0013962634015954635,0.000733038285837618,0.1261164909513226,0.18550509986479247,-0.06781633287214497,0.07179918486439799,0.2153964834856751,24.5,0x0000,0x4056
157,5.468844101000059,adis16470,-0.00375,0.005,0.99875,-0.03677493749999999,0.04903325,9.7943916875,0.069,0.020000000000000018,-0.3580000000000001,0.0012042771838760874,0.0003490658503988662,-0.006248278722139702,0.13168650859115813,0.18678028148550405,-0.0802878124021692,0.28683504810786925,0.21512437660030614,24.400000000000002,0x0000,0x4056
158,5.5036824690000685,adis16470,-0.00375,0.00375,1.00125,-0.03677493749999999,0.03677493749999999,9.8189083125,-0.23100000000000004,-0.07999999999999999,0.041999999999999975,-0.004031710572106902,-0.0013962634015954635,0.000733038285837618,0.12545785891805777,0.18460511342558364,-0.07882459939217568,0.21458993112939587,0.2145884260888787,24.6,0x0000,0x4056
159,5.538541669000097,adis16470,-0.0025,0.00375,1.00125,-0.024516625,0.03677493749999999,9.8189083125,0.269,0.12000000000000002,-0.25800000000000006,0.004694935687864747,0.0020943951023931957,-0.004502949470145371,0.1364301069193152,0.18787365034302075,-0.08781829672816654,0.21458993112939587,0.14305932233764715,24.400000000000002,0x0000,0x4056
160,5.57337842600009,adis16470,0.00125,0.0025,1.01125,0.0122583125,0.024516625,9.9169748125,-0.131,-0.18,-0.15800000000000003,-0.002286381320112572,-0.003141592653589793,-0.002757620218151041,0.13206208659785773,0.17655453535956384,-0.09332248979817558,0.14164564348180778,-0.07082271352932101,24.400000000000002,0x0000,0x4056
161,5.608199795000019,adis16470,-0.00625,0.0075,0.9775,-0.0612915625,0.07354987499999999,9.586000375,-0.031,0.020000000000000018,0.041999999999999975,-0.0005410520681182421,0.0003490658503988662,0.000733038285837618,0.13715499038130208,0.18103245402382595,-0.09185999230016903,0.43960093528131217,0.3663255269525171,24.6,0x0000,0x4056
162,5.643010573000083,adis16470,-0.01,-0.02875,1.0225,-0.0980665,-0.2819411875,10.027299625,-0.431,0.020000000000000018,0.142,-0.0075223690760955605,0.0003490658503988662,0.002478367537831948,0.08749692743660731,0.18929630816871001,-0.0869168775861869,-1.6105816804830917,0.5601107076081522,24.6,0x0000,0x4056
163,5.6777692620000835,adis16470,-0.0075,0.03,1.0175,-0.07354987499999999,0.29419949999999995,9.978266375,0.069,0.020000000000000018,-0.4580000000000001,0.0012042771838760874,0.0003490658503988662,-0.00799360797413403,0.12187378909492678,0.1946343810457482,-0.1028363145542209,1.6888211972763287,0.4221365279405466,24.8,0x0000,0x4056
164,5.712574576999941,adis16470,0.00375,-0.0125,1.0125,0.03677493749999999,-0.122583125,9.929233125,-0.031,0.020000000000000018,0.041999999999999975,-0.0005410520681182421,0.0003490658503988662,0.000733038285837618,0.10423253989522661,0.18718008895641713,-0.10137449052622577,-0.7073193685442567,-0.2121894507406901,24.5,0x0000,0x4056
165,5.747483383999906,adis16470,-0.015,0.01125,0.98875,-0.14709974999999997,0.1103248125,9.6963251875,-0.131,-0.07999999999999999,0.24200000000000002,-0.002286381320112572,-0.0013962634015954635,0.004223696789826278,0.11070390490328767,0.19808144933406366,-0.09292644718620857,0.6518833944287354,0.8690924462390207,24.6,0x0000,0x4056
166,5.782322512000064,adis16470,0.02375,0.0075,0.98375,0.2329079375,0.07354987499999999,9.6472919375,0.169,0.22000000000000006,0.041999999999999975,0.002949606435870417,0.003839724354387526,0.000733038285837618,0.12299601843101798,0.1739722242387993,-0.09146321086621327,0.4368081535307294,-1.3829437942279479,24.5,0x0000,0x4056
167,5.817161546000079,adis16470,-0.0125,-0.0125,1.0050000000000001,-0.122583125,-0.122583125,9.85568325,-0.031,0.020000000000000018,-0.05800000000000003,-0.0005410520681182421,0.0003490658503988662,-0.0010122909661567116,0.10522574272321952,0.1854264685543488,-0.09348387275022305,-0.7125973289966486,0.7125422219761094,24.5,0x0000,0x4056
168,5.851968860999932,adis16470,0.01625,0.0025,1.01,0.1593580625,0.024516625,9.9047165,-0.23100000000000004,0.12000000000000002,0.142,-0.004031710572106902,0.0020943951023931957,0.002478367537831948,0.09807800033894294,0.16737614834885475,-0.08854125503624773,0.14182094678042328,-0.9217556836793307,24.400000000000002,0x0000,0x4056
169,5.886774638999896,adis16470,-0.00875,-0.00125,1.00375,-0.08580818750000001,-0.0122583125,9.843424937499998,-0.031,0.22000000000000006,-0.25800000000000006,-0.0005410520681182421,0.003839724354387526,-0.004502949470145371,0.09363199453891505,0.18152181969736492,-0.09752117904229698,-0.07135211692916192,0.49945203831230267,24.400000000000002,0x0000,0x4056
170,5.921577992000039,adis16470,-0.005,0.00875,1.0,-0.04903325,0.08580818750000001,9.80665,0.269,0.020000000000000018,0.142,0.004694935687864747,0.0003490658503988662,0.002478367537831948,0.11096067607665742,0.18430283663722702,-0.09257912663031648,0.5013252767618416,0.2864655444106055,24.400000000000002,0x0000,0x4056
171,5.956374918999927,adis16470,-0.00375,0.00125,0.99875,-0.03677493749999999,0.0122583125,9.7943916875,-0.031,-0.07999999999999999,0.142,-0.0005410520681182421,-0.0013962634015954635,0.002478367537831948,0.10911851838587239,0.18219123890489036,-0.08763796299630003,0.0717093236505815,0.21512690386084704,24.6,0x0000,0x4056
172,5.991155013000025,adis16470,-0.00875,0.01,0.9975,-0.08580818750000001,0.0980665,9.782133375,0.169,0.020000000000000018,0.041999999999999975,0.002949606435870417,0.0003490658503988662,0.000733038285837618,0.12418391811579625,0.18928023228315533,-0.08617719900630591,0.5743745381882245,0.5025564147182751,24.6,0x0000,0x4056
173,6.025988197000061,adis16470,0.00125,0.0025,0.99875,0.0122583125,0.024516625,9.7943916875,0.269,-0.18,-0.05800000000000003,0.004694935687864747,-0.003141592653589793,-0.0010122909661567116,0.13375135141684963,0.17791585912268262,-0.08819752791231594,0.14341842264918372,-0.07170909899895411,24.400000000000002,0x0000,0x4056
174,6.06080523300011,adis16470,-0.01625,0.01,0.99875,-0.1593580625,0.0980665,9.7943916875,0.069,0.22000000000000006,-0.05800000000000003,0.0012042771838760874,0.003839724354387526,-0.0010122909661567116,0.14490376803765148,0.20050595369544894,-0.09021691710230716,0.5736557195024539,0.932092734862629,24.6,0x0000,0x4056
175,6.095565310999973,adis16470,0.0075,0.00625,0.99875,0.07354987499999999,0.0612915625,9.7943916875,-0.131,0.020000000000000018,-0.25800000000000006,-0.002286381320112572,0.0003490658503988662,-0.004502949470145371,0.14471405061946205,0.18857233686365635,-0.09918498858834,0.3585421253019974,-0.4302396555543034,24.6,0x0000,0x4056
176,6.1303764960000535,adis16470,-0.0075,0.01,0.9975,-0.07354987499999999,0.0980665,9.782133375,-0.131,0.020000000000000018,0.041999999999999975,-0.002286381320112572,0.0003490658503988662,0.000733038285837618,0.14883818375115754,0.1940985033402406,-0.09772291335834661,0.5743745381882245,0.4307655719930228,24.700000000000003,0x0000,0x4056
177,6.165176366999958,adis16470,0.00625,0.00125,1.00125,0.0612915625,0.0122583125,9.8189083125,0.169,-0.07999999999999999,0.24200000000000002,0.002949606435870417,-0.0013962634015954635,0.004223696789826278,0.15305556181415447,0.18033529941720647,-0.0893013714383057,0.0715302743396037,-0.35764663361080223,24.5,0x0000,0x4056
178,6.2000283049999325,adis16470,0.005,0.00125,1.00625,0.04903325,0.0122583125,9.8679415625,-0.031,0.020000000000000018,0.041999999999999975,-0.0005410520681182421,0.0003490658503988662,0.000733038285837618,0.15035913268536874,0.17171776048788692,-0.08783757219231411,0.07117484477156402,-0.2846969627885739,24.6,0x0000,0x4056
179,6.234957977000022,adis16470,0.00125,0.0,0.99875,0.0122583125,0.0,9.7943916875,0.169,0.12000000000000002,0.041999999999999975,0.002949606435870417,0.0020943951023931957,0.000733038285837618,0.15313700843626665,0.17095695258353552,-0.08637052441430769,0.0,-0.0717093236505815,24.6,0x0000,0x4056
180,6.269783582999935,adis16470,-0.0025,-0.00125,1.0025,-0.024516625,-0.0122583125,9.831166624999998,0.069,0.12000000000000002,0.142,0.0012042771838760874,0.0020943951023931957,0.002478367537831948,0.15100033403845484,0.17449090670619724,-0.08142533039432756,-0.07144108456385073,0.14288183591744352,24.6,0x0000,0x4056
181,6.304580042999987,adis16470,-0.00625,0.005,1.00375,-0.0612915625,0.04903325,9.843424937499998,-0.131,0.020000000000000018,-0.05800000000000003,-0.002286381320112572,0.0003490658503988662,-0.0010122909661567116,0.14922129960480587,0.17881813129019217,-0.08344351753433121,0.2854062546264104,0.35675173250588116,24.3,0x0000,0x4056
182,6.339375317000076,adis16470,-0.005,0.005,0.99875,-0.04903325,0.04903325,9.7943916875,0.069,-0.07999999999999999,0.24200000000000002,0.0012042771838760874,-0.0013962634015954635,0.004223696789826278,0.15432642356455495,0.17825045688311836,-0.07502308784630324,0.28683504810786925,0.2868314538169541,24.6,0x0000,0x4056
183,6.374171629000102,adis16470,-0.0075,0.0075,1.00125,-0.07354987499999999,0.07354987499999999,9.8189083125,-0.131,0.020000000000000018,0.041999999999999975,-0.002286381320112572,0.0003490658503988662,0.000733038285837618,0.1553562143418624,0.18395069259394914,-0.07356164043230748,0.42917384220227756,0.4291618027647562,24.6,0x0000,0x4056
184,6.408970255999975,adis16470,0.0,0.00125,1.0025,0.0,0.0122583125,9.831166624999998,0.069,0.22000000000000006,0.142,0.0012042771838760874,0.003839724354387526,0.002478367537831948,0.15603099111732285,0.18777425064967238,-0.06862024335030602,0.07144108456385073,-0.0,24.8,0x0000,0x4056
185,6.443765993999932,adis16470,-0.0025,0.005,0.99875,-0.024516625,0.04903325,9.7943916875,0.169,0.12000000000000002,0.142,0.002949606435870417,0.0020943951023931957,0.002478367537831948,0.1644099392379023,0.19097907470046968,-0.06367925125231587,0.28683504810786925,0.14341662546994588,24.6,0x0000,0x4056
186,6.478596431999904,adis16470,-0.0025,-0.00125,0.99875,-0.024516625,-0.0122583125,9.7943916875,-0.331,0.22000000000000006,-0.25800000000000006,-0.005777039824101231,0.003839724354387526,-0.004502949470145371,0.14838919000376746,0.19753734604374704,-0.07266555714633588,-0.0717093236505815,0.14341831032350197,24.6,0x0000,0x4056
187,6.513357394999957,adis16470,-0.00625,-0.0025,1.0,-0.0612915625,-0.024516625,9.80665,0.269,0.020000000000000018,0.041999999999999975,0.004694935687864747,0.0003490658503988662,0.000733038285837618,0.15172033251542333,0.2014297726071586,-0.0712055928363363,-0.14323915036830656,0.35809284031433425,24.700000000000003,0x0000,0x4056
188,6.548119912999937,adis16470,-0.00375,0.00625,1.00125,-0.03677493749999999,0.0612915625,9.8189083125,-0.031,-0.07999999999999999,0.041999999999999975,-0.0005410520681182421,-0.0013962634015954635,0.000733038285837618,0.15478278273364882,0.19896752086820665,-0.06974557249833717,0.3576469123176653,0.21458575053948123,24.6,0x0000,0x4056
189,6.582916151000063,adis16470,-0.00375,0.00125,0.99875,-0.03677493749999999,0.0122583125,9.7943916875,-0.131,-0.07999999999999999,-0.15800000000000003,-0.002286381320112572,-0.0013962634015954635,-0.002757620218151041,0.1486541772675994,0.19656268636965454,-0.0752433722563471,0.0717093236505815,0.21512690386084704,25.0,0x0000,0x4056
190,6.617712556000015,adis16470,-0.00125,0.00125,1.00125,-0.0122583125,0.0122583125,9.8189083125,0.069,0.020000000000000018,-0.05800000000000003,0.0012042771838760874,0.0003490658503988662,-0.0010122909661567116,0.14946463083035444,0.19474404617978291,-0.07726156264434278,0.0715302743396037,0.071530218596146,24.5,0x0000,0x4056
191,6.6525067560000934,adis16470,0.0025,0.0025,1.00375,0.024516625,0.024516625,9.843424937499998,-0.23100000000000004,0.22000000000000006,0.041999999999999975,-0.004031710572106902,0.003839724354387526,0.000733038285837618,0.14145271154351455,0.1954967194968645,-0.07580020700034104,0.142704012546829,-0.14270356992658498,24.700000000000003,0x0000,0x4056
192,6.687280032999979,adis16470,-0.00875,0.00375,1.0050000000000001,-0.08580818750000001,0.03677493749999999,9.85568325,0.069,-0.18,-0.05800000000000003,0.0012042771838760874,-0.003141592653589793,-0.0010122909661567116,0.14525080961615244,0.19542933789816014,-0.07781705596434606,0.21378922987711652,0.49882777512240983,24.6,0x0000,0x4056
193,6.72205168000005,adis16470,0.0,0.00625,1.0050000000000001,0.0,0.0612915625,9.85568325,-0.131,-0.07999999999999999,-0.05800000000000003,-0.002286381320112572,-0.0013962634015954635,-0.0010122909661567116,0.14500805581045667,0.18879465252580716,-0.07983381259233849,0.35631244338452583,-0.0,24.5,0x0000,0x4056
194,6.756879490000074,adis16470,-0.00375,0.0075,0.99625,-0.03677493749999999,0.07354987499999999,9.769875062499999,-0.031,0.12000000000000002,-0.25800000000000006,-0.0005410520681182421,0.0020943951023931957,-0.004502949470145371,0.14967637663540087,0.19342773883289555,-0.08881941595233794,0.43132770753766314,0.21566079828023904,24.6,0x0000,0x4056
195,6.791706836000003,adis16470,-0.00125,0.00625,1.0,-0.0122583125,0.0612915625,9.80665,-0.23100000000000004,-0.07999999999999999,-0.05800000000000003,-0.004031710572106902,-0.0013962634015954635,-0.0010122909661567116,0.14596052185134564,0.18826108871842862,-0.09083939993234273,0.35809395932357113,0.07161828830987142,24.6,0x0000,0x4056
196,6.826502333000008,adis16470,-0.0025,-0.00375,1.00625,-0.024516625,-0.03677493749999999,9.8679415625,0.169,0.22000000000000006,0.34199999999999997,0.002949606435870417,0.003839724354387526,0.0059690260418206065,0.14453365923963485,0.19484473365147317,-0.07893935911037189,-0.21352365565448742,0.14234848139157527,24.700000000000003,0x0000,0x4056
197,6.861300033999896,adis16470,-0.00375,0.0025,0.9975,-0.03677493749999999,0.024516625,9.782133375,0.169,-0.18,0.041999999999999975,0.002949606435870417,-0.003141592653589793,0.000733038285837618,0.1502781319232044,0.18911745709812292,-0.07747785877637235,0.14359814423120423,0.21539597612386185,24.6,0x0000,0x4056
198,6.896150341000066,adis16470,-0.0075,0.0025,1.0,-0.07354987499999999,0.024516625,9.80665,0.169,0.020000000000000018,-0.05800000000000003,0.002949606435870417,0.0003490658503988662,-0.0010122909661567116,0.15590930932658395,0.1946123587268209,-0.07949919380837146,0.14323915036830656,0.42970894661303755,24.6,0x0000,0x4056
199,6.930997760000082,adis16470,-0.00375,0.0,1.00375,-0.03677493749999999,0.0,9.843424937499998,0.169,0.020000000000000018,-0.15800000000000003,0.002949606435870417,0.0003490658503988662,-0.002757620218151041,0.1585625434001377,0.195684229178,-0.08500507716239572,0.0,0.21405546554562488,24.5,0x0000,0x4056
200,6.965790295000033,adis16470,0.00125,0.00375,1.00125,0.0122583125,0.03677493749999999,9.8189083125,-0.031,0.020000000000000018,-0.05800000000000003,-0.0005410520681182421,0.0003490658503988662,-0.0010122909661567116,0.15862609451864512,0.191021882454975,-0.08702304309039137,0.21458993112939587,-0.07152977265317602,24.700000000000003,0x0000,0x4056
201,7.000725965999891,adis16470,0.00125,0.00125,0.99875,0.0122583125,0.0122583125,9.7943916875,-0.031,-0.07999999999999999,0.041999999999999975,-0.0005410520681182421,-0.0013962634015954635,0.000733038285837618,0.1558264094669016,0.18302829265772017,-0.08555573944838825,0.0717093236505815,-0.07170926748747669,24.400000000000002,0x0000,0x4056
202,7.035588994999898,adis16470,-0.005,0.00125,0.995,-0.04903325,0.0122583125,9.757616749999999,-0.131,0.12000000000000002,-0.05800000000000003,-0.002286381320112572,0.0020943951023931957,-0.0010122909661567116,0.14967378118596875,0.18922591392856594,-0.08757778434238407,0.07197958463679698,0.28791583936043236,24.5,0x0000,0x4056
203,7.070447450000074,adis16470,-0.0025,-0.0025,1.00125,-0.024516625,-0.024516625,9.8189083125,0.069,-0.07999999999999999,-0.15800000000000003,0.0012042771838760874,-0.0013962634015954635,-0.002757620218151041,0.14617623034479324,0.18556968739403046,-0.09308542623638431,-0.14306032570581104,0.1430598797617985,24.400000000000002,0x0000,0x4056
204,7.105253001999927,adis16470,-0.005,0.00125,1.0,-0.04903325,0.0122583125,9.80665,-0.131,0.12000000000000002,-0.05800000000000003,-0.002286381320112572,0.0020943951023931957,-0.0010122909661567116,0.14021676990320764,0.19168094570517452,-0.09510414500438373,0.07161968708944809,0.2864762864712931,24.700000000000003,0x0000,0x4056
205,7.14009079199991,adis16470,-0.0025,0.005,1.0025,-0.024516625,0.04903325,9.831166624999998,0.069,0.12000000000000002,-0.15800000000000003,0.0012042771838760874,0.0020943951023931957,-0.002757620218151041,0.14548341070441734,0.19480185864428168,-0.10060852167039111,0.2857621168765344,0.14288016990025768,24.6,0x0000,0x4056
206,7.175033999000107,adis16470,-0.0025,0.00125,1.00125,-0.024516625,0.0122583125,9.8189083125,0.269,-0.07999999999999999,-0.05800000000000003,0.004694935687864747,-0.0013962634015954635,-0.0010122909661567116,0.15321615450160414,0.1910274550421835,-0.10263524490239179,0.0715302743396037,0.14306021421941692,24.6,0x0000,0x4056
207,7.209921484999995,adis16470,-0.0025,0.00375,1.00375,-0.024516625,0.03677493749999999,9.843424937499998,0.069,0.12000000000000002,0.041999999999999975,0.0012042771838760874,0.0020943951023931957,0.000733038285837618,0.15679201244265417,0.1941636997008632,-0.10116998296439825,0.21405546554562488,0.1427030166570717,24.3,0x0000,0x4056
208,7.244763549000027,adis16470,-0.00375,0.0025,1.00125,-0.03677493749999999,0.024516625,9.8189083125,-0.031,0.12000000000000002,-0.15800000000000003,-0.0005410520681182421,0.0020943951023931957,-0.002757620218151041,0.15545887680359638,0.1986696376776214,-0.1066750290764032,0.14306032570581104,0.21458926221858984,24.3,0x0000,0x4056
209,7.279577891999907,adis16470,-0.00375,0.00125,0.99875,-0.03677493749999999,0.0122583125,9.7943916875,0.269,0.020000000000000018,-0.25800000000000006,0.004694935687864747,0.0003490658503988662,-0.004502949470145371,0.16296165760490813,0.19968114522168534,-0.11565714401839541,0.0717093236505815,0.21512690386084704,24.700000000000003,0x0000,0x4056
210,7.314402067999936,adis16470,-0.00375,0.00125,0.9975,-0.03677493749999999,0.0122583125,9.782133375,0.069,-0.07999999999999999,-0.15800000000000003,0.0012042771838760874,-0.0013962634015954635,-0.002757620218151041,0.16349321514450918,0.19726524097895207,-0.12115935497842174,0.07179918486439799,0.2153964834856751,24.700000000000003,0x0000,0x4056
211,7.34922950400005,adis16470,-0.0025,0.00625,0.99625,-0.024516625,0.0612915625,9.769875062499999,-0.031,0.020000000000000018,-0.25800000000000006,-0.0005410520681182421,0.0003490658503988662,-0.004502949470145371,0.16635413220452533,0.19687806220558024,-0.13014481437441847,0.35944183102329696,0.14377548755037428,24.3,0x0000,0x4056
212,7.384039921000067,adis16470,-0.00375,0.00375,1.0,-0.03677493749999999,0.03677493749999999,9.80665,-0.031,-0.07999999999999999,-0.15800000000000003,-0.0005410520681182421,-0.0013962634015954635,-0.002757620218151041,0.16626667578475682,0.19450850607784037,-0.135644842722427,0.2148581660301822,0.21485665533879808,24.5,0x0000,0x4056
213,7.418847172999904,adis16470,-0.0025,0.00625,1.00125,-0.024516625,0.0612915625,9.8189083125,-0.131,-0.28,0.142,-0.002286381320112572,-0.004886921905584123,0.002478367537831948,0.1656257302537149,0.18392838693276634,-0.1307022181924269,0.3576469123176653,0.14305753862414888,24.3,0x0000,0x4056
214,7.4536580349999895,adis16470,-0.005,0.00125,0.9975,-0.04903325,0.0122583125,9.782133375,0.169,0.020000000000000018,0.041999999999999975,0.002949606435870417,0.0003490658503988662,0.000733038285837618,0.16951461422475722,0.18667600199319626,-0.12924015186643484,0.07179918486439799,0.2871942590144471,24.3,0x0000,0x4056
215,7.488495692000015,adis16470,-0.00125,0.0,0.99625,-0.0122583125,0.0,9.769875062499999,0.069,-0.18,0.142,0.0012042771838760874,-0.003141592653589793,0.002478367537831948,0.16848004173704023,0.17823491139326744,-0.12429320996843873,0.0,0.07188927157651441,24.6,0x0000,0x4056
216,7.523298795000073,adis16470,-0.00125,0.0025,1.00125,-0.0122583125,0.024516625,9.8189083125,0.169,0.12000000000000002,0.041999999999999975,0.002949606435870417,0.0020943951023931957,0.000733038285837618,0.17373572822620634,0.18019365263755496,-0.12283148195243095,0.14306032570581104,0.07153005136655487,24.700000000000003,0x0000,0x4056
217,7.558111397999937,adis16470,-0.00625,0.00375,0.9975,-0.0612915625,0.03677493749999999,9.782133375,-0.031,0.020000000000000018,0.34199999999999997,-0.0005410520681182421,0.0003490658503988662,0.0059690260418206065,0.17351134262964593,0.1844518823549226,-0.1109256031904558,0.21539665260707627,0.3589888777260077,24.400000000000002,0x0000,0x4056
218,7.592919797999912,adis16470,0.0,0.00375,1.0025,0.0,0.03677493749999999,9.831166624999998,0.069,0.12000000000000002,0.142,0.0012042771838760874,0.0020943951023931957,0.002478367537831948,0.17668130580295355,0.18485631031341804,-0.10598281308846319,0.21432236513420277,-0.0,24.700000000000003,0x0000,0x4056
219,7.627705402999936,adis16470,-0.0025,0.00125,0.99875,-0.024516625,0.0122583125,9.7943916875,0.169,0.22000000000000006,-0.15800000000000003,0.002949606435870417,0.003839724354387526,-0.002757620218151041,0.1803430610411763,0.191527330632433,-0.11147894152247292,0.0717093236505815,0.14341831032350197,24.700000000000003,0x0000,0x4056
220,7.662511340000037,adis16470,-0.00625,0.0025,1.00375,-0.0612915625,0.024516625,9.843424937499998,0.069,-0.28,-0.15800000000000003,0.0012042771838760874,-0.004886921905584123,-0.002757620218151041,0.1819438563140737,0.18528114088592332,-0.11697827672448304,0.142704012546829,0.3567550519878277,24.5,0x0000,0x4056
221,7.697314314000096,adis16470,-0.0025,0.0,1.0,-0.024516625,0.0,9.80665,0.069,-0.07999999999999999,0.041999999999999975,0.0012042771838760874,-0.0013962634015954635,0.000733038285837618,0.1806583562896608,0.18171174791398426,-0.11551655181649013,0.0,0.14323915036830656,24.700000000000003,0x0000,0x4056
222,7.732119251000086,adis16470,-0.0025,0.00375,1.00125,-0.024516625,0.03677493749999999,9.8189083125,0.069,-0.07999999999999999,0.142,0.0012042771838760874,-0.0013962634015954635,0.002478367537831948,0.1836904963416284,0.17820999383124256,-0.11057425346046304,0.21458993112939587,0.14305932233764715,24.6,0x0000,0x4056
223,7.766925373000049,adis16470,-0.0025,0.00375,1.00125,-0.024516625,0.03677493749999999,9.8189083125,0.069,0.020000000000000018,-0.05800000000000003,0.0012042771838760874,0.0003490658503988662,-0.0010122909661567116,0.1866620762918031,0.17818918076497048,-0.11259300963846246,0.21458993112939587,0.14305932233764715,24.700000000000003,0x0000,0x4056
224,7.801730606000092,adis16470,-0.00125,0.00375,1.00125,-0.0122583125,0.03677493749999999,9.8189083125,-0.23100000000000004,0.12000000000000002,0.041999999999999975,-0.004031710572106902,0.0020943951023931957,0.000733038285837618,0.17934142904323125,0.1801490857691365,-0.11113119065046177,0.21458993112939587,0.07152977265317602,24.6,0x0000,0x4056
225,7.8365350429999125,adis16470,-0.005,0.00375,0.995,-0.04903325,0.03677493749999999,9.757616749999999,0.069,-0.07999999999999999,-0.05800000000000003,0.0012042771838760874,-0.0013962634015954635,-0.0010122909661567116,0.18242683339446109,0.179575716629098,-0.11314984799645136,0.21593784510832903,0.2879140218065078,24.5,0x0000,0x4056
226,7.871378921000087,adis16470,-0.0025,0.0,0.99875,-0.024516625,0.0,9.7943916875,0.069,0.020000000000000018,-0.05800000000000003,0.0012042771838760874,0.0003490658503988662,-0.0010122909661567116,0.18113444983230934,0.179535513678699,-0.1151708015624492,0.0,0.14341842264918372,25.3,0x0000,0x4056
227,7.906190950000109,adis16470,-0.00125,0.0025,0.99875,-0.0122583125,0.024516625,9.7943916875,-0.031,0.020000000000000018,-0.05800000000000003,-0.0005410520681182421,0.0003490658503988662,-0.0010122909661567116,0.17932254379702584,0.17806129860550474,-0.11718989170445111,0.14341842264918372,0.07170909899895411,24.400000000000002,0x0000,0x4056
228,7.941001663999941,adis16470,-0.00375,0.0025,1.0025,-0.03677493749999999,0.024516625,9.831166624999998,0.069,0.020000000000000018,-0.05800000000000003,0.0012042771838760874,0.0003490658503988662,-0.0010122909661567116,0.18094763362629765,0.17946879697464446,-0.11920891421845609,0.142881946987328,0.2143216987224072,24.400000000000002,0x0000,0x4056
229,7.975829543999907,adis16470,-0.00375,0.00875,1.0025,-0.03677493749999999,0.08580818750000001,9.831166624999998,0.169,-0.07999999999999999,0.142,0.002949606435870417,-0.0013962634015954635,0.002478367537831948,0.19309840796562686,0.17743518485790696,-0.11426332913044662,0.5000751526082065,0.21431420201803028,24.700000000000003,0x0000,0x4056
230,8.010664571000007,adis16470,0.0,0.00125,1.0025,0.0,0.0122583125,9.831166624999998,-0.031,0.12000000000000002,-0.25800000000000006,-0.0005410520681182421,0.0020943951023931957,-0.004502949470145371,0.1896069728001144,0.17798308257033685,-0.12325077099842038,0.07144108456385073,-0.0,24.6,0x0000,0x4056
231,8.045515171000034,adis16470,-0.00125,0.00875,1.00375,-0.0122583125,0.08580818750000001,9.843424937499998,0.069,-0.07999999999999999,-0.25800000000000006,0.0012042771838760874,-0.0013962634015954635,-0.004502949470145371,0.1981604756409747,0.17311812638952392,-0.13224221135040418,0.4994524255793412,0.0713494060094449,24.5,0x0000,0x4056
232,8.08037282600003,adis16470,-0.005,0.00375,0.99875,-0.04903325,0.03677493749999999,9.7943916875,-0.131,0.22000000000000006,-0.05800000000000003,-0.002286381320112572,0.003839724354387526,-0.0010122909661567116,0.19402476988685702,0.18290775485661775,-0.13426396073441285,0.21512707234805006,0.28683302630260343,24.400000000000002,0x0000,0x4056
233,8.115201315999911,adis16470,-0.0025,-0.0025,1.0025,-0.024516625,-0.024516625,9.831166624999998,-0.131,0.22000000000000006,-0.05800000000000003,-0.002286381320112572,0.003839724354387526,-0.0010122909661567116,0.18281536350329564,0.1896162363032684,-0.13628400886241182,-0.142881946987328,0.14288150270934405,24.3,0x0000,0x4056
234,8.150066044999903,adis16470,-0.00125,0.00375,1.00125,-0.0122583125,0.03677493749999999,9.8189083125,-0.23100000000000004,0.020000000000000018,0.041999999999999975,-0.004031710572106902,0.0003490658503988662,0.000733038285837618,0.17555817342995114,0.1879378560714671,-0.1348196894884106,0.21458993112939587,0.07152977265317602,24.6,0x0000,0x4056
235,8.184976952999932,adis16470,-0.0025,0.00625,1.0,-0.024516625,0.0612915625,9.80665,-0.031,0.12000000000000002,-0.15800000000000003,-0.0005410520681182421,0.0020943951023931957,-0.002757620218151041,0.1781482782942878,0.1911494164072666,-0.14033570380238847,0.35809395932357113,0.14323635282226646,24.700000000000003,0x0000,0x4056
236,8.219792348000055,adis16470,-0.00125,0.00125,1.0,-0.0122583125,0.0122583125,9.80665,0.169,-0.07999999999999999,0.142,0.002949606435870417,-0.0013962634015954635,0.002478367537831948,0.18178371874040616,0.18602934743784794,-0.13539201498237546,0.07161968708944809,0.0716196311366914,24.3,0x0000,0x4056
237,8.254642111000067,adis16470,-0.005,0.00125,1.00125,-0.04903325,0.0122583125,9.8189083125,0.169,-0.28,0.142,0.002949606435870417,-0.004886921905584123,0.002478367537831948,0.18535050734924585,0.17846829255951518,-0.13044331455637914,0.0715302743396037,0.2861186446808545,24.700000000000003,0x0000,0x4056
238,8.289454895000063,adis16470,-0.0025,0.00375,1.00125,-0.024516625,0.03677493749999999,9.8189083125,0.169,-0.18,-0.05800000000000003,0.002949606435870417,-0.003141592653589793,-0.0010122909661567116,0.1917009371062333,0.17161919344709436,-0.1324624378163737,0.21458993112939587,0.14305932233764715,24.6,0x0000,0x4056
239,8.3242603839999,adis16470,-0.0025,0.0025,1.0025,-0.024516625,0.024516625,9.831166624999998,0.069,0.020000000000000018,-0.05800000000000003,0.0012042771838760874,0.0003490658503988662,-0.0010122909661567116,0.1930781031852577,0.1717266268443401,-0.1344811550763759,0.142881946987328,0.14288150270934405,24.3,0x0000,0x4056
240,8.359066686999995,adis16470,-0.00125,0.00625,1.00125,-0.0122583125,0.0612915625,9.8189083125,-0.031,0.020000000000000018,0.142,-0.0005410520681182421,0.0003490658503988662,0.002478367537831948,0.19531206388276295,0.1704048754621003,-0.1295386600503623,0.3576469123176653,0.07152888079225685,24.3,0x0000,0x4056
241,8.393870990000096,adis16470,0.00375,0.00875,1.00125,0.03677493749999999,0.08580818750000001,9.8189083125,-0.031,0.020000000000000018,0.142,-0.0005410520681182421,0.0003490658503988662,0.002478367537831948,0.20036245711465497,0.16338730719079902,-0.12459645158035323,0.5006994343924603,-0.21458173740302552,24.6,0x0000,0x4056
242,8.428732825999987,adis16470,-0.005,0.0025,1.00375,-0.04903325,0.024516625,9.843424937499998,-0.031,0.12000000000000002,0.142,-0.0005410520681182421,0.0020943951023931957,0.002478367537831948,0.1981501777772021,0.1699274508070169,-0.11964603409037022,0.142704012546829,0.2854053694023964,24.5,0x0000,0x4056
243,8.463608197999974,adis16470,-0.005,0.00375,1.00375,-0.04903325,0.03677493749999999,9.843424937499998,0.069,0.020000000000000018,0.041999999999999975,0.0012042771838760874,0.0003490658503988662,0.000733038285837618,0.20082655740437222,0.1729205446925563,-0.11818126771036919,0.21405546554562488,0.285404262883962,24.6,0x0000,0x4056
244,8.498414278999917,adis16470,-0.0025,0.005,1.00125,-0.024516625,0.04903325,9.8189083125,-0.031,-0.07999999999999999,-0.25800000000000006,-0.0005410520681182421,-0.0013962634015954635,-0.004502949470145371,0.201474999911571,0.16959452090179247,-0.12716119378039661,0.28611886764947253,0.14305854195478193,24.5,0x0000,0x4056
245,8.53321882299997,adis16470,-0.00125,0.00375,1.00625,-0.0122583125,0.03677493749999999,9.8679415625,-0.331,0.020000000000000018,-0.25800000000000006,-0.005777039824101231,0.0003490658503988662,-0.004502949470145371,0.19042609320900122,0.16830828545908658,-0.13614075168438716,0.21352365565448742,0.07117435052653363,24.6,0x0000,0x4056
246,8.567980851999891,adis16470,-0.00375,0.00375,0.99875,-0.03677493749999999,0.03677493749999999,9.7943916875,-0.031,0.020000000000000018,0.142,-0.0005410520681182421,0.0003490658503988662,0.002478367537831948,0.18986404347482652,0.16992596591265155,-0.13120454882040736,0.21512707234805006,0.21512555597747435,24.6,0x0000,0x4056
247,8.60277958200004,adis16470,-0.00375,0.00625,0.99625,-0.03677493749999999,0.0612915625,9.769875062499999,0.269,0.020000000000000018,0.24200000000000002,0.004694935687864747,0.0003490658503988662,0.004223696789826278,0.2024292451735447,0.17152275536508985,-0.12278325180441767,0.35944183102329696,0.21566266549460805,24.1,0x0000,0x4056
248,8.637609679999969,adis16470,-0.0025,0.005,1.0,-0.024516625,0.04903325,9.80665,-0.031,0.12000000000000002,0.041999999999999975,-0.0005410520681182421,0.0020943951023931957,0.000733038285837618,0.2030520476021297,0.17505308438580874,-0.12132038147240998,0.2864765102770745,0.14323735991995798,24.200000000000003,0x0000,0x4056
249,8.672424501000023,adis16470,0.0025,0.005,1.00125,0.024516625,0.04903325,9.8189083125,-0.131,0.020000000000000018,0.142,-0.002286381320112572,0.0003490658503988662,0.002478367537831948,0.20024385728311872,0.16937322235059354,-0.11637667689043453,0.28611886764947253,-0.14305854195478193,24.700000000000003,0x0000,0x4056
250,8.707224803999907,adis16470,-0.0025,0.0,0.9975,-0.024516625,0.0,9.782133375,-0.131,-0.07999999999999999,-0.05800000000000003,-0.002286381320112572,-0.0013962634015954635,-0.0010122909661567116,0.1917713337993221,0.16612938714659706,-0.11839508698244096,0.0,0.14359814423120423,24.400000000000002,0x0000,0x4056
251,8.742099953999968,adis16470,-0.00125,0.005,0.995,-0.0122583125,0.04903325,9.757616749999999,0.069,-0.07999999999999999,-0.25800000000000006,0.0012042771838760874,-0.0013962634015954635,-0.004502949470145371,0.19605249360329918,0.1615121524581587,-0.12739290432044734,0.28791606655709323,0.07197867584477506,24.5,0x0000,0x4056
252,8.776917849000029,adis16470,-0.00125,0.0,1.00375,-0.0122583125,0.0,9.843424937499998,0.169,0.020000000000000018,-0.15800000000000003,0.002949606435870417,0.0003490658503988662,-0.002757620218151041,0.19789797737319265,0.1603913817643787,-0.13289412588444682,0.0,0.07135211692916192,24.6,0x0000,0x4056
253,8.811700876000032,adis16470,-0.0025,0.01,1.0,-0.024516625,0.0980665,9.80665,0.069,0.12000000000000002,0.041999999999999975,0.0012042771838760874,0.0020943951023931957,0.000733038285837618,0.20775081384410302,0.1641386670646535,-0.13143324261444403,0.5729386976834859,0.14323198897772707,24.400000000000002,0x0000,0x4056
254,8.846495403000063,adis16470,-0.00375,-0.00125,1.0025,-0.03677493749999999,-0.0122583125,9.831166624999998,-0.131,-0.07999999999999999,0.142,-0.002286381320112572,-0.0013962634015954635,0.002478367537831948,0.197700057067282,0.16241444834517266,-0.12649242262044189,-0.07144108456385073,0.21432219853067108,24.6,0x0000,0x4056
255,8.88129294700002,adis16470,-0.00375,0.0025,1.0025,-0.03677493749999999,0.024516625,9.831166624999998,-0.23100000000000004,0.12000000000000002,-0.15800000000000003,-0.004031710572106902,0.0020943951023931957,-0.002757620218151041,0.188726222327369,0.1675447868791142,-0.13199043773243765,0.142881946987328,0.2143216987224072,24.400000000000002,0x0000,0x4056
256,8.916093417999946,adis16470,0.0,0.0,1.00125,0.0,0.0,9.8189083125,-0.23100000000000004,-0.07999999999999999,0.44199999999999995,-0.004031710572106902,-0.0013962634015954635,0.007714355293814936,0.17707358015953634,0.16146553868394392,-0.11660865474450548,0.0,-0.0,24.6,0x0000,0x4056
257,8.950900647000026,adis16470,-0.00375,-0.0025,1.0050000000000001,-0.03677493749999999,-0.024516625,9.85568325,-0.031,0.12000000000000002,0.142,-0.0005410520681182421,0.0020943951023931957,0.002478367537831948,0.16962412720321315,0.16660535775079127,-0.11166599400450086,-0.14252652072657387,0.213788568426121,24.400000000000002,0x0000,0x4056
258,8.985729947999971,adis16470,-0.00125,0.005,0.99875,-0.0122583125,0.04903325,9.7943916875,-0.131,-0.28,0.142,-0.002286381320112572,-0.004886921905584123,0.002478367537831948,0.16749696933066177,0.15515027893370065,-0.10672024362849589,0.28683504810786925,0.07170842505673995,24.3,0x0000,0x4056
259,9.020534732999977,adis16470,-0.00125,0.0,1.0025,-0.0122583125,0.0,9.831166624999998,-0.23100000000000004,-0.28,0.142,-0.004031710572106902,-0.004886921905584123,0.002478367537831948,0.1562679145660505,0.14392565216388173,-0.10177795904648457,0.0,0.07144108456385073,24.5,0x0000,0x4056
260,9.055362996999975,adis16470,0.0,0.0,0.0,0.0,0.0,0.0,-0.031,-0.18,-1.6580000000000001,-0.0005410520681182421,-0.003141592653589793,-0.028937558998065986,0.15208447303718875,0.1349034299993998,-0.159523252260525,0.0,-0.0,0.0,0xFFFF,0xFFFF
261,9.090180021999913,adis16470,-0.00125,-0.00125,-0.00125,-0.0122583125,-0.0122583125,-0.0122583125,-0.031,-0.18,-0.15800000000000003,-0.0005410520681182421,-0.003141592653589793,-0.002757620218151041,-2.5520149576430557,0.8313514318445164,-0.16502434221051526,-135.0,35.264389682754654,307.20000000000005,0x0000,0x0000
262,9.125068689000045,adis16470,-0.00125,-0.00125,-0.00125,-0.0122583125,-0.0122583125,-0.0122583125,0.069,-0.18,-0.15800000000000003,0.0012042771838760874,-0.003141592653589793,-0.002757620218151041,-5.198615478037064,1.5138578130719385,-0.17053677213649854,-135.0,35.264389682754654,-0.1,0x0000,0x0000
263,9.159888676000037,adis16470,-0.00125,-0.00125,-0.00125,-0.0122583125,-0.0122583125,-0.0122583125,-0.031,-0.18,-0.15800000000000003,-0.0005410520681182421,-0.003141592653589793,-0.002757620218151041,-7.795701000258607,2.18272620140719,-0.1760383330845014,-135.0,35.264389682754654,0.0,0xFFFF,0xFFFF
264,9.194853168000009,adis16470,0.0,0.00875,-0.00125,0.0,0.08580818750000001,-0.0122583125,-1.5310000000000001,-0.07999999999999999,-0.05800000000000003,-0.02672099084803319,-0.0013962634015954635,-0.0010122909661567116,-5.729645679360225,2.1363304234958376,-0.17806630151850805,98.13010235415598,-0.0,-0.1,0x0000,0x00FF
265,9.229711685999973,adis16470,-0.00125,-0.00125,-0.00125,-0.0122583125,-0.0122583125,-0.0122583125,-0.031,-0.18,-0.15800000000000003,-0.0005410520681182421,-0.003141592653589793,-0.002757620218151041,-8.316111752329483,2.792742654482209,-0.1835738682045133,-135.0,35.264389682754654,-0.1,0xFFFF,0xFFFF
266,9.264547093999909,adis16470,-0.00125,-0.00125,0.0,-0.0122583125,-0.0122583125,0.0,-0.031,-0.18,-0.15800000000000003,-0.0005410520681182421,-0.003141592653589793,-0.002757620218151041,-9.950847820380492,3.6307428156645853,-0.18907788036449558,-90.0,45.0,0.0,0xFFFF,0xFFFF
267,9.299374225000065,adis16470,-0.00125,-0.00125,-0.00125,-0.0122583125,-0.0122583125,-0.0122583125,-0.031,-0.18,-0.15800000000000003,-0.0005410520681182421,-0.003141592653589793,-0.002757620218151041,-12.452888905437925,4.257272286435184,-0.19458053182849774,-135.0,35.264389682754654,-0.1,0x00FF,0xFF0F
268,9.334202726000058,adis16470,-0.00125,-0.00125,-0.00125,-0.0122583125,-0.0122583125,-0.0122583125,-0.031,-0.18,-0.15800000000000003,-0.0005410520681182421,-0.003141592653589793,-0.002757620218151041,-14.904889217219928,4.8712708866087775,-0.20008343514449492,-135.0,35.264389682754654,-0.1,0xFFFF,0xFFFF
269,9.369013154999948,adis16470,-0.00125,-0.00125,-0.00125,-0.0122583125,-0.0122583125,-0.0122583125,-0.031,-0.18,-0.15800000000000003,-0.0005410520681182421,-0.003141592653589793,-0.002757620218151041,-17.30784897200727,5.472992712734491,-0.20558347407849928,-135.0,35.264389682754654,-0.1,0xFFFF,0xFFFF
270,9.403819565000049,adis16470,-0.00125,-0.00125,-0.00125,-0.0122583125,-0.0122583125,-0.0122583125,-0.031,-0.18,-0.15800000000000003,-0.0005410520681182421,-0.003141592653589793,-0.002757620218151041,-19.662749407930747,6.062680820991311,-0.21108286932048517,-135.0,35.264389682754654,-0.1,0xFFFF,0xFFFF
271,9.438623734999965,adis16470,-0.00125,-0.00125,-0.00125,-0.0122583125,-0.0122583125,-0.0122583125,-0.031,-0.18,-0.15800000000000003,-0.0005410520681182421,-0.003141592653589793,-0.002757620218151041,-21.97055176933268,6.640575549165364,-0.21658192233449777,-135.0,35.264389682754654,-0.1,0xFFFF,0xFFFF
272,9.473472439000034,adis16470,-0.00125,-0.00125,-0.00125,-0.0122583125,-0.0122583125,-0.0122583125,-0.031,-0.18,-0.15800000000000003,-0.0005410520681182421,-0.003141592653589793,-0.002757620218151041,-24.232199443193846,7.206904487817562,-0.22208804679648697,-135.0,35.264389682754654,-0.1,0xFFFF,0xFFFF
273,9.50826181299999,adis16470,-0.00125,-0.00125,-0.00125,-0.0122583125,-0.0122583125,-0.0122583125,0.069,-3.2800000000000002,819.042,0.0012042771838760874,-0.057246799465414014,14.294979612119397,-26.44520300436591,7.656227584729127,28.271779499244026,-135.0,35.264389682754654,-0.1,0x0000,0x0000
274,9.543075575000103,adis16470,0.0,0.63875,0.0,0.0,6.2639976875,0.0,-0.031,-0.18,-0.05800000000000003,-0.0005410520681182421,-0.003141592653589793,-0.0010122909661567116,-24.117356585790933,7.496961888769329,28.269760302150022,90.0,-0.0,0.0,0xFFFF,0xFFFF
275,9.577876449000087,adis16470,0.0,0.0,0.0,0.0,0.0,0.0,0.069,-0.07999999999999999,-0.05800000000000003,0.0012042771838760874,-0.0013962634015954635,-0.0010122909661567116,-23.63265621647329,7.344294259571539,28.26774184931202,0.0,-0.0,0.0,0x0000,0x0000
276,9.612675156000023,adis16470,0.0,0.0,0.0,0.0,0.0,0.0,0.069,-0.07999999999999999,-0.05800000000000003,0.0012042771838760874,-0.0013962634015954635,-0.0010122909661567116,-23.15765000601081,7.1946801585737195,28.26572352639403,0.0,-0.0,0.0,0x0000,0x0000
277,9.647476770999901,adis16470,0.0,0.0,0.0,0.0,0.0,0.0,0.069,-0.07999999999999999,-0.05800000000000003,0.0012042771838760874,-0.0013962634015954635,-0.0010122909661567116,-22.692143720751908,7.048058108864636,28.263705032782024,0.0,-0.0,0.0,0x0000,0x0000
278,9.68228155199995,adis16470,0.0,0.0,0.0,0.0,0.0,0.0,0.069,-0.07999999999999999,-0.05800000000000003,0.0012042771838760874,-0.0013962634015954635,-0.0010122909661567116,-22.23594734826281,6.904368253268142,28.261686356528024,0.0,-0.0,0.0,0x0000,0x0000
279,9.717177937000088,adis16470,-0.00125,-0.00125,-0.00125,-0.0122583125,-0.0122583125,-0.0122583125,-0.031,-0.18,-0.15800000000000003,-0.0005410520681182421,-0.003141592653589793,-0.002757620218151041,-24.492288563590392,7.465412900802669,28.25617267508402,-135.0,35.264389682754654,-0.1,0xFFFF,0xFFFF
280,9.751993142999936,adis16470,-0.00125,-0.00125,-0.00125,-0.0122583125,-0.0122583125,-0.0122583125,-0.031,-0.18,-0.15800000000000003,-0.0005410520681182421,-0.003141592653589793,-0.002757620218151041,-26.703500472656568,8.015251066737312,28.250671901766022,-135.0,35.264389682754654,-0.1,0xFFFF,0xFFFF
281,9.786793942000031,adis16470,-0.00125,-0.00125,-0.00125,-0.0122583125,-0.0122583125,-0.0122583125,-0.031,-0.18,-0.15800000000000003,-0.0005410520681182421,-0.003141592653589793,-0.002757620218151041,-28.870487710353,8.554094984640853,28.245173381370016,-135.0,35.264389682754654,-0.1,0xFFFF,0xFFFF
282,9.821605815000112,adis16470,-0.00125,-0.00125,-0.00125,-0.0122583125,-0.0122583125,-0.0122583125,-0.031,-0.18,-0.15800000000000003,-0.0005410520681182421,-0.003141592653589793,-0.002757620218151041,-30.99413554197174,9.082160057679145,28.23967309959003,-135.0,35.264389682754654,-0.1,0xFFFF,0xFFFF
283,9.856481349999967,adis16470,-0.00125,-0.00125,-0.00125,-0.0122583125,-0.0122583125,-0.0122583125,-0.031,-0.18,-0.15800000000000003,-0.0005410520681182421,-0.003141592653589793,-0.002757620218151041,-33.07531235046282,9.599652602455077,28.234162762058048,-135.0,35.264389682754654,-0.1,0xFFFF,0xFFFF
284,9.891280760999962,adis16470,-0.00125,-0.00125,-0.00125,-0.0122583125,-0.0122583125,-0.0122583125,-0.031,-0.18,-0.15800000000000003,-0.0005410520681182421,-0.003141592653589793,-0.002757620218151041,-35.114863305063515,10.106808754067835,28.22866447850402,-135.0,35.264389682754654,-0.1,0xFFFF,0xFFFF
285,9.9260554519999,adis16470,-0.00125,-0.00125,-0.00125,-0.0122583125,-0.0122583125,-0.0122583125,-0.031,-0.18,-0.15800000000000003,-0.0005410520681182421,-0.003141592653589793,-0.002757620218151041,-37.113622497993845,10.603826094393582,28.223170056944028,-135.0,35.264389682754654,-0.1,0xFFFF,0xFFFF
286,9.960845159999963,adis16470,-0.00125,-0.00125,-0.00125,-0.0122583125,-0.0122583125,-0.0122583125,-0.031,-0.18,-0.15800000000000003,-0.0005410520681182421,-0.003141592653589793,-0.002757620218151041,-39.07240696215797,11.090900445440806,28.21767326854403,-135.0,35.264389682754654,-0.1,0xFFFF,0xFFFF
287,9.99568517900002,adis16470,-0.00125,-0.00125,-0.00125,-0.0122583125,-0.0122583125,-0.0122583125,-0.031,-0.18,-0.15800000000000003,-0.0005410520681182421,-0.003141592653589793,-0.002757620218151041,-40.99201726102113,11.56822446053749,28.212168554232036,-135.0,35.264389682754654,-0.1,0xFFFF,0xFFFF
